timestamp,pqr_x,pqr_y,pqr_z,acc_x,acc_y,acc_z
1760390991343231,-0.001705,-0.002721,-0.002605,0.418059,-5.551410,-7.976862
1760390991343245,0.001138,0.000600,-0.000963,0.416487,-5.559421,-7.980025
1760390991343249,0.000739,-0.003117,-0.002593,0.424258,-5.535469,-7.968925
1760390991344214,0.005208,-0.000638,-0.000545,0.418037,-5.532298,-7.983360
1760390991345328,0.002750,-0.002696,-0.000965,0.394001,-5.556194,-7.954793
1760390991346284,0.001947,-0.000654,-0.000964,0.401997,-5.543474,-7.965845
1760390991347241,0.003554,0.004315,0.000243,0.403673,-5.549754,-7.965831
1760390991348213,0.000742,0.000999,-0.003036,0.414928,-5.557858,-7.986345
1760390991349197,0.000320,-0.001474,-0.001802,0.414934,-5.559422,-7.983171
1760390991350322,-0.000105,-0.001867,-0.001798,0.416425,-5.540246,-7.972167
1760390991351311,0.001171,-0.000668,-0.004242,0.410012,-5.543423,-7.965858
1760390991352274,0.003570,-0.001067,-0.001366,0.409951,-5.543407,-7.973733
1760390991353230,0.002347,0.001430,-0.002203,0.413119,-5.536948,-7.964229
1760390991354351,0.002325,0.000603,0.001070,0.411542,-5.541803,-7.961060
1760390991355332,0.000336,-0.005178,-0.000950,0.408303,-5.546535,-7.957779
1760390991356303,0.001543,0.004729,-0.003855,0.413102,-5.540182,-7.962609
1760390991357274,0.002769,-0.001873,-0.000545,0.419528,-5.546542,-7.968885
1760390991358263,-0.004555,-0.002731,-0.005104,0.414746,-5.562478,-7.962490
1760390991359221,-0.000521,-0.004355,-0.000563,0.406873,-5.556252,-7.976873
1760390991360333,0.001130,0.000606,-0.001808,0.416314,-5.540260,-7.968906
1760390991361303,-0.000901,-0.004793,-0.003832,0.419595,-5.552969,-7.968864
1760390991362274,-0.000959,0.001426,0.001873,0.408343,-5.540197,-7.973733
1760390991363243,-0.002956,0.000567,-0.003881,0.418064,-5.556180,-7.980021
1760390991364211,0.001105,0.001429,0.001462,0.411505,-5.541796,-7.972099
1760390991365187,0.001151,-0.000661,-0.002612,0.403573,-5.554643,-7.970517
1760390991366303,0.000732,0.000188,-0.002622,0.406766,-5.527443,-7.976996
1760390991367266,-0.003774,-0.000248,-0.001827,0.421222,-5.556243,-7.984776
1760390991368240,-0.000562,-0.003908,0.001873,0.416452,-5.548292,-7.978523
1760390991369210,0.001514,-0.000229,-0.001390,0.413232,-5.544950,-7.967431
1760390991370190,0.001989,-0.001467,-0.003826,0.413305,-5.560973,-7.979959
1760390991371319,0.000320,-0.001871,-0.002206,0.419724,-5.554606,-7.986377
1760390991372291,-0.000106,-0.002282,0.000253,0.422826,-5.544999,-7.978448
1760390991373246,-0.000920,-0.001466,-0.000154,0.417938,-5.538589,-7.973716
1760390991374210,-0.000504,-0.002698,-0.001385,0.422793,-5.549769,-7.965734
1760390991375193,0.001123,-0.003928,-0.002200,0.398846,-5.540262,-7.962790
1760390991376320,-0.003361,0.001786,-0.000173,0.414791,-5.546628,-7.968990
1760390991377287,0.001129,0.000191,0.001896,0.414837,-5.557786,-7.978409
1760390991378254,-0.002149,-0.001911,-0.000167,0.408376,-5.546581,-7.967387
1760390991379221,-0.004611,-0.000657,0.001442,0.406769,-5.557733,-7.957800
1760390991380334,-0.000559,0.003075,-0.001421,0.424270,-5.544937,-7.967228
1760390991381301,0.001547,-0.001473,-0.003025,0.421060,-5.552997,-7.962474
1760390991382273,-0.000086,-0.003140,-0.005502,0.419457,-5.546557,-7.951437
1760390991383242,-0.000104,-0.003952,-0.002614,0.422745,-5.540269,-7.981575
1760390991384209,0.001553,-0.002694,-0.003017,0.398817,-5.538717,-7.965953
1760390991385334,-0.000073,-0.000245,-0.003443,0.408380,-5.549837,-7.965775
1760390991386301,0.001088,-0.000618,-0.000159,0.398858,-5.538639,-7.973904
1760390991387265,-0.000932,-0.003132,0.000263,0.414767,-5.546559,-7.967378
1760390991388239,-0.000478,-0.006858,-0.004655,0.408471,-5.546682,-7.983287
1760390991389209,-0.001341,-0.003508,0.002299,0.392491,-5.546628,-7.973867
1760390991390333,0.000322,-0.001059,-0.000564,0.409885,-5.544983,-7.959437
1760390991391311,-0.005024,0.001811,0.000613,0.416322,-5.548210,-7.968900
1760390991392273,0.000310,0.002686,-0.000175,0.410097,-5.554610,-7.976898
1760390991393239,-0.003337,-0.003549,-0.002212,0.422831,-5.549811,-7.976852
1760390991394218,-0.000530,-0.000662,-0.001802,0.406839,-5.554622,-7.972137
1760390991395192,0.003979,-0.001873,-0.002587,0.406819,-5.544968,-7.965887
1760390991396231,-0.001722,-0.000668,-0.002209,0.409951,-5.556217,-7.964155
1760390991397198,-0.004553,-0.001513,-0.004698,0.401987,-5.559360,-7.964187
1760390991398326,-0.005798,-0.002330,-0.001413,0.409835,-5.538629,-7.957893
1760390991399286,-0.001746,0.003866,-0.000186,0.419463,-5.533706,-7.951532
1760390991400253,-0.002976,-0.001455,0.000634,0.416136,-5.533755,-7.951444
1760390991401221,-0.001312,0.000593,-0.003455,0.418004,-5.543396,-7.970577
1760390991402192,-0.000492,-0.003105,-0.001382,0.426118,-5.541807,-7.981657
1760390991403320,0.001536,-0.003120,-0.001778,0.419608,-5.548223,-7.970525
1760390991404286,-0.001730,0.002228,-0.004284,0.406782,-5.545024,-7.970605
1760390991405252,-0.000080,-0.001909,-0.002614,0.424223,-5.548217,-7.962484
1760390991406211,-0.000506,-0.002307,-0.003037,0.416398,-5.557751,-7.957794
1760390991407339,0.001936,-0.000231,0.000257,0.408351,-5.546603,-7.957883
1760390991408309,0.001518,-0.000616,0.001487,0.422704,-5.544924,-7.953053
1760390991409278,-0.000945,-0.002700,0.000254,0.424432,-5.562552,-7.973587
1760390991410244,0.005623,-0.003943,-0.002981,0.419610,-5.552981,-7.964133
1760390991411211,-0.000521,0.000585,-0.000568,0.399046,-5.559428,-7.983356
1760390991412334,-0.002916,-0.001912,-0.003446,0.417967,-5.556173,-7.964168
1760390991413290,0.002362,0.000587,-0.001369,0.424360,-5.549797,-7.968925
1760390991414253,-0.000966,-0.001450,0.001471,0.408411,-5.554658,-7.975288
1760390991415227,0.003172,0.002670,-0.002208,0.417918,-5.537068,-7.970567
1760390991416193,-0.003770,-0.000211,0.001059,0.409901,-5.546574,-7.962605
1760390991417321,-0.000917,-0.000255,-0.003459,0.424207,-5.544921,-7.956175
1760390991418290,-0.000114,-0.001457,0.001873,0.413023,-5.549751,-7.956151
1760390991419249,-0.002140,-0.003096,0.000655,0.408357,-5.548157,-7.961040
1760390991420204,-0.000123,-0.001054,0.001076,0.403674,-5.551359,-7.975314
1760390991421343,0.000311,-0.000631,-0.000988,0.414799,-5.543409,-7.962642
1760390991422315,0.000707,0.001410,-0.000591,0.424326,-5.543331,-7.959385
1760390991423283,-0.002940,-0.001473,-0.001395,0.413258,-5.543337,-7.972179
1760390991424251,0.001128,-0.001470,-0.000163,0.398786,-5.548207,-7.962708
1760390991425218,-0.001328,0.000610,-0.000180,0.411581,-5.541822,-7.967422
1760390991426334,-0.000541,-0.000227,0.001481,0.405279,-5.549833,-7.978521
1760390991427266,-0.001358,-0.001475,-0.000168,0.395672,-5.557834,-7.972200
1760390991428244,-0.000520,0.001431,-0.001412,0.425930,-5.554634,-7.976699
1760390991429214,-0.001771,0.000190,0.001461,0.411649,-5.562521,-7.973619
1760390991430338,0.000295,-0.003130,-0.001388,0.413340,-5.576912,-7.976757
1760390991431306,0.001513,0.001419,-0.000165,0.421082,-5.548167,-7.968853
1760390991432425,-0.000121,0.001025,0.000237,0.410081,-5.559398,-7.975275
1760390991433227,-0.003378,-0.001459,-0.001823,0.398815,-5.551442,-7.969018
1760390991434349,0.003541,-0.001446,0.002733,0.397142,-5.545033,-7.964272
1760390991435335,-0.000927,0.000159,-0.003446,0.408431,-5.543424,-7.961104
1760390991436310,-0.002548,-0.001473,-0.000580,0.403681,-5.554667,-7.978507
1760390991437285,0.002335,-0.001020,0.001892,0.397266,-5.554595,-7.975315
1760390991438293,0.001922,-0.001060,0.000254,0.406850,-5.548205,-7.973775
1760390991439251,-0.000520,-0.003535,0.000254,0.416408,-5.554563,-7.965771
1760390991440206,0.006435,0.002260,-0.000549,0.410039,-5.559391,-7.972115
1760390991441244,0.000726,-0.000651,-0.001375,0.408576,-5.559413,-7.981693
1760390991442226,-0.004181,0.000161,-0.002239,0.422802,-5.548204,-7.968913
1760390991443194,-0.000140,0.002662,0.001453,0.406860,-5.551361,-7.962659
1760390991444319,0.003978,0.001417,-0.000552,0.421108,-5.551326,-7.960926
1760390991445285,0.001092,0.000574,0.000258,0.417949,-5.540255,-7.973751
1760390991446243,-0.001298,-0.004370,-0.003018,0.409893,-5.541790,-7.954722
1760390991447200,-0.001345,-0.000639,0.001877,0.416398,-5.554554,-7.962584
1760390991448190,-0.004573,0.000152,-0.001831,0.400364,-5.541831,-7.956386
1760390991449331,-0.000934,-0.000649,-0.001400,0.392542,-5.543456,-7.972322
1760390991450297,-0.003346,0.001016,-0.000606,0.416347,-5.541790,-7.972097
1760390991451279,-0.000910,-0.003108,-0.000167,0.422712,-5.540195,-7.972057
1760390991452241,-0.001753,0.000180,-0.001405,0.405452,-5.538672,-7.996114
1760390991453197,0.002364,-0.001056,-0.002592,0.409884,-5.544932,-7.961023
1760390991454318,0.002349,-0.001032,-0.000559,0.421184,-5.548137,-7.967328
1760390991455291,0.005607,0.000604,-0.002182,0.414759,-5.552936,-7.962570
1760390991456269,-0.002538,0.000991,-0.000588,0.424189,-5.548095,-7.954548
1760390991457236,-0.001745,-0.000644,-0.001000,0.413098,-5.530513,-7.956336
1760390991458204,0.000703,-0.004349,0.000686,0.414820,-5.544948,-7.965832
1760390991459322,0.003601,-0.000222,-0.001776,0.403602,-5.543391,-7.970611
1760390991460278,0.003151,-0.000231,-0.003417,0.405262,-5.549786,-7.970595
1760390991461240,-0.000537,-0.001457,0.001478,0.400395,-5.548164,-7.967422
1760390991462213,-0.001738,-0.000246,-0.000574,0.419609,-5.551383,-7.970509
1760390991463191,0.001160,-0.002721,-0.003012,0.414766,-5.545047,-7.965768
1760390991464315,-0.000110,0.001826,-0.001399,0.417994,-5.553023,-7.973639
1760390991465281,0.001109,0.000585,-0.002615,0.409981,-5.541847,-7.965809
1760390991466239,-0.000099,-0.002697,0.000249,0.417816,-5.538587,-7.960992
1760390991467194,0.001121,-0.000233,-0.001807,0.410018,-5.548239,-7.973730
1760390991468327,0.000727,-0.004767,-0.001361,0.421095,-5.543348,-7.962541
1760390991469297,-0.000929,-0.000240,-0.001795,0.408341,-5.548185,-7.967369
1760390991470273,0.004402,0.000596,-0.000957,0.402084,-5.540263,-7.973859
1760390991471240,0.000720,-0.002695,-0.000963,0.414725,-5.546558,-7.962574
1760390991472219,-0.000909,-0.003539,-0.002609,0.403503,-5.532232,-7.965890
1760390991473334,0.000306,-0.000229,-0.002210,0.422827,-5.543446,-7.987963
1760390991474297,0.003164,-0.001428,0.001073,0.411655,-5.545059,-7.978536
1760390991475269,-0.000519,0.001408,-0.000990,0.413220,-5.552969,-7.965801
1760390991476246,0.000706,0.000176,-0.000160,0.418054,-5.557804,-7.972065
1760390991477223,-0.000924,0.000595,-0.000185,0.417903,-5.556154,-7.968809
1760390991478192,-0.000914,-0.001851,0.000661,0.419686,-5.564188,-7.975200
1760390991479310,-0.003786,-0.001067,0.000633,0.418071,-5.560973,-7.973647
1760390991480266,0.002737,-0.001052,0.000676,0.419532,-5.564172,-7.967191
1760390991481240,0.001089,-0.000220,0.001063,0.408334,-5.540229,-7.961097
1760390991482213,0.002329,0.001442,0.002715,0.419620,-5.535450,-7.980135
1760390991483196,0.001079,-0.000217,0.001061,0.417961,-5.546616,-7.980026
1760390991484331,-0.000518,-0.002691,0.000245,0.413362,-5.535480,-7.984999
1760390991485297,-0.000090,-0.001880,-0.000168,0.416387,-5.548219,-7.967357
1760390991486255,-0.001320,0.001005,-0.003052,0.429241,-5.557747,-7.972037
1760390991487213,0.000695,0.002675,-0.000584,0.406782,-5.546648,-7.972164
1760390991488196,-0.000876,-0.003543,-0.003433,0.410080,-5.549839,-7.980081
1760390991489326,-0.000916,-0.001906,-0.001794,0.403566,-5.543429,-7.967434
1760390991490292,0.001103,0.001439,-0.001000,0.413087,-5.551363,-7.954630
1760390991491270,0.000323,0.001426,-0.001391,0.405204,-5.552989,-7.967368
1760390991492230,-0.001764,0.001430,-0.000182,0.410020,-5.549854,-7.975280
1760390991493195,-0.001715,-0.001479,-0.003854,0.411691,-5.559466,-7.976871
1760390991494318,-0.001722,0.000975,-0.002628,0.408307,-5.540239,-7.962636
1760390991495289,0.003178,-0.001065,-0.002192,0.414718,-5.530628,-7.965851
1760390991496284,-0.004604,0.002203,-0.000613,0.419438,-5.552887,-7.959302
1760390991497269,-0.000503,-0.005593,-0.001380,0.419488,-5.549774,-7.959379
1760390991498246,-0.001729,-0.001875,-0.000579,0.421172,-5.541763,-7.970563
1760390991499206,-0.000492,-0.000228,-0.000582,0.414733,-5.544946,-7.964205
1760390991500319,0.000732,0.000170,-0.003026,0.417954,-5.548192,-7.968963
1760390991501288,-0.000542,-0.001045,0.000233,0.417904,-5.552939,-7.964114
1760390991502268,-0.002152,-0.001464,0.001051,0.410030,-5.545024,-7.978531
1760390991503239,0.001546,-0.002724,-0.003827,0.414877,-5.548181,-7.973759
1760390991504207,-0.001330,-0.001454,-0.001412,0.411709,-5.560944,-7.967376
1760390991505341,0.001965,0.003485,-0.003040,0.403635,-5.553059,-7.976919
1760390991506299,-0.001319,-0.002723,-0.003034,0.406779,-5.556187,-7.967334
1760390991507265,-0.003366,-0.003133,-0.005100,0.411522,-5.538594,-7.965806
1760390991508243,-0.000510,-0.001046,-0.002217,0.417960,-5.551372,-7.972073
1760390991509213,0.002727,-0.000630,-0.000147,0.410085,-5.553058,-7.978469
1760390991510337,-0.002171,0.001414,-0.000184,0.421289,-5.551426,-7.984791
1760390991511306,-0.005018,-0.002707,-0.001423,0.417998,-5.554588,-7.973619
1760390991512277,0.000315,-0.000223,-0.002621,0.413220,-5.565879,-7.983142
1760390991513232,0.003178,0.000600,-0.002625,0.427567,-5.549795,-7.976791
1760390991514210,0.001495,-0.000198,0.001889,0.416359,-5.559292,-7.954580
1760390991515183,0.005208,-0.000614,-0.000964,0.406958,-5.570556,-7.964165
1760390991516311,-0.000478,-0.000627,-0.002620,0.413175,-5.543435,-7.970570
1760390991517277,-0.000088,0.000989,-0.003444,0.400395,-5.560944,-7.965782
1760390991518244,-0.001317,-0.003534,-0.000979,0.421181,-5.556144,-7.962543
1760390991519211,0.001114,-0.000223,-0.000156,0.421144,-5.541788,-7.964183
1760390991520324,0.000325,-0.000246,-0.003858,0.403742,-5.549833,-7.970651
1760390991521299,-0.000930,0.000596,-0.001378,0.419510,-5.548162,-7.960968
1760390991522277,-0.001705,0.000156,-0.003038,0.398801,-5.556156,-7.962640
1760390991523247,-0.001712,0.000166,-0.003044,0.408398,-5.559344,-7.964151
1760390991524215,-0.000509,-0.003110,-0.002609,0.408283,-5.541800,-7.959459
1760390991525197,-0.002134,-0.000226,-0.002219,0.409890,-5.543422,-7.965787
1760390991526322,0.003545,-0.003092,0.003971,0.398793,-5.541798,-7.962719
1760390991527266,-0.003347,0.000964,-0.005504,0.409873,-5.540210,-7.949963
1760390991528241,0.000669,-0.000226,0.001898,0.405124,-5.537057,-7.964254
1760390991529211,0.002331,0.001864,-0.000981,0.409726,-5.549791,-7.948230
1760390991530192,0.000710,0.001435,0.000239,0.409871,-5.548217,-7.964152
1760390991531321,0.001133,-0.001456,-0.000961,0.409924,-5.537028,-7.968955
1760390991532282,-0.001336,-0.006421,0.000250,0.405296,-5.537053,-7.975474
1760390991533249,-0.001312,-0.002321,-0.001379,0.421118,-5.541831,-7.968936
1760390991534215,-0.000487,-0.003112,-0.002216,0.419542,-5.543396,-7.964159
1760390991535190,0.001951,-0.001445,-0.002211,0.408341,-5.548215,-7.967328
1760390991536317,0.002362,0.000612,-0.002202,0.405318,-5.556285,-7.983253
1760390991537284,0.004801,-0.000209,-0.002185,0.419662,-5.538613,-7.981685
1760390991538255,0.000294,-0.005599,-0.000139,0.411750,-5.543440,-7.984885
1760390991539213,-0.000074,-0.003138,-0.003027,0.405298,-5.541851,-7.972270
1760390991540336,-0.003794,-0.002710,-0.001418,0.419565,-5.565717,-7.965620
1760390991541189,0.002353,-0.004332,-0.000960,0.405322,-5.556247,-7.975349
1760390991542321,0.005205,-0.001047,-0.002181,0.418059,-5.548175,-7.968956
1760390991543290,-0.000893,0.000994,-0.004693,0.432337,-5.551357,-7.970420
1760390991544257,0.001120,0.001019,-0.001380,0.410011,-5.554520,-7.962585
1760390991545224,-0.002140,-0.000663,-0.001402,0.413111,-5.533862,-7.969005
1760390991546198,-0.002563,-0.001893,-0.000983,0.408521,-5.554630,-7.981688
1760390991547325,0.000713,0.004716,-0.000191,0.405255,-5.540184,-7.973802
1760390991548295,-0.002176,-0.003509,0.000643,0.413174,-5.552967,-7.967340
1760390991549265,0.001107,-0.002285,-0.000967,0.403733,-5.546696,-7.986495
1760390991550231,0.000287,-0.000222,0.000227,0.414812,-5.556253,-7.968895
1760390991551208,-0.002570,-0.002728,-0.001002,0.413162,-5.548212,-7.973691
1760390991552331,-0.000121,-0.002276,-0.000582,0.406888,-5.565759,-7.981588
1760390991553287,0.003135,-0.001468,0.001482,0.416345,-5.536993,-7.968984
1760390991554252,-0.000494,-0.001470,-0.003030,0.418002,-5.551330,-7.965757
1760390991555226,-0.000127,0.002237,-0.001812,0.419505,-5.551386,-7.965684
1760390991556193,-0.001342,-0.003513,0.001487,0.410135,-5.553022,-7.980108
1760390991557321,-0.000514,0.000155,-0.002623,0.414734,-5.538633,-7.972139
1760390991558288,0.000696,-0.001054,0.001492,0.413097,-5.543409,-7.964147
1760390991559247,0.000322,-0.001471,-0.003427,0.402031,-5.549862,-7.967464
1760390991560202,-0.000924,0.000595,-0.001814,0.413271,-5.557780,-7.968957
1760390991561338,-0.001329,0.001418,-0.002629,0.403559,-5.554616,-7.961029
1760390991562309,-0.000510,0.001829,-0.000980,0.417900,-5.552913,-7.964090
1760390991563278,-0.000134,-0.001456,0.001876,0.417999,-5.549808,-7.972093
1760390991564245,0.004360,-0.002678,0.001091,0.406794,-5.552959,-7.965807
1760390991565211,0.005210,-0.003517,-0.000121,0.402033,-5.556178,-7.975327
1760390991566326,0.003987,-0.001045,-0.002191,0.393983,-5.546615,-7.970636
1760390991567266,0.001938,-0.000226,-0.002209,0.411693,-5.549823,-7.970599
1760390991568247,0.000708,-0.005567,-0.000551,0.400498,-5.548286,-7.973835
1760390991569216,0.001988,-0.001070,-0.004652,0.419612,-5.540218,-7.972147
1760390991570340,0.000289,0.001409,-0.000148,0.421335,-5.559326,-7.983162
1760390991571308,-0.000093,-0.001062,-0.001794,0.411770,-5.548284,-7.997560
1760390991572269,0.002335,-0.000640,-0.000574,0.402103,-5.537078,-7.978637
1760390991573225,0.001968,-0.001086,-0.003017,0.414849,-5.548194,-7.976892
1760390991574345,-0.000520,-0.001050,-0.000998,0.422770,-5.540205,-7.976906
1760390991575328,-0.002583,-0.000216,0.000630,0.418120,-5.552965,-7.978492
1760390991576296,-0.002513,-0.002694,-0.003048,0.421160,-5.544994,-7.962583
1760390991577266,0.002370,-0.001476,-0.003835,0.425869,-5.552938,-7.964036
1760390991578249,-0.003350,-0.000253,-0.005924,0.406875,-5.552970,-7.969020
1760390991579207,0.000286,-0.001036,-0.000985,0.406846,-5.545001,-7.969030
1760390991580321,0.000276,0.001830,0.000649,0.402000,-5.540216,-7.972219
1760390991581291,-0.001711,0.000167,-0.003030,0.402045,-5.551399,-7.969027
1760390991582282,-0.001333,-0.002298,-0.000984,0.405272,-5.543421,-7.970653
1760390991583251,0.000711,0.000185,-0.000979,0.408401,-5.556213,-7.967332
1760390991584218,-0.000088,0.000170,-0.001386,0.403683,-5.554568,-7.973766
1760390991585343,-0.001303,0.002229,-0.003861,0.397220,-5.549823,-7.967433
1760390991586301,-0.001306,-0.001491,-0.004661,0.405257,-5.546561,-7.967433
1760390991587266,0.000723,-0.002328,-0.001790,0.419529,-5.533813,-7.965806
1760390991588243,0.001542,-0.001055,-0.001799,0.424321,-5.544999,-7.967297
1760390991589222,0.000718,-0.003118,-0.002207,0.419539,-5.546585,-7.965723
1760390991590201,0.001131,-0.000651,-0.001391,0.394125,-5.543456,-7.970732
1760390991591340,-0.000119,-0.002292,0.001073,0.406916,-5.554645,-7.973816
1760390991592301,0.000698,-0.002698,-0.000161,0.413228,-5.549794,-7.976868
1760390991593257,-0.001769,-0.003523,0.002692,0.414691,-5.527412,-7.976931
1760390991594220,-0.001337,0.001408,-0.000584,0.406792,-5.532292,-7.980189
1760390991595190,0.001136,0.001000,-0.003029,0.408375,-5.545083,-7.984769
1760390991596203,0.003178,0.001847,-0.000986,0.400557,-5.554701,-7.984917
1760390991597331,0.000294,0.000194,0.001477,0.413213,-5.560976,-7.972034
1760390991598298,0.002345,0.001028,-0.002615,0.424337,-5.554569,-7.968849
1760390991599258,-0.001329,-0.003537,-0.000555,0.425964,-5.548169,-7.978408
1760390991600214,0.000319,0.004312,-0.001825,0.408366,-5.541834,-7.973762
1760390991601194,-0.001296,0.000991,-0.003856,0.403577,-5.541820,-7.969060
1760390991602331,-0.003766,0.001418,-0.001838,0.419558,-5.540174,-7.980025
1760390991603320,0.000313,0.001407,-0.000584,0.413161,-5.546640,-7.965798
1760390991604285,-0.000109,-0.000655,-0.001393,0.402016,-5.548240,-7.964310
1760390991605251,-0.000493,-0.002305,-0.000568,0.405124,-5.532248,-7.959569
1760390991606210,-0.000532,-0.001051,-0.000170,0.414780,-5.535492,-7.972190
1760390991607328,0.002352,-0.002292,0.000272,0.411674,-5.549822,-7.976923
1760390991608298,-0.002551,-0.000259,-0.002645,0.401956,-5.541791,-7.957927
1760390991609268,0.003157,0.002671,-0.000154,0.411542,-5.535375,-7.959526
1760390991610243,0.001131,0.003073,-0.003448,0.405167,-5.554573,-7.959423
1760390991611211,0.001564,-0.002723,-0.005066,0.416479,-5.551334,-7.972133
1760390991612334,-0.000934,-0.001465,-0.001399,0.424371,-5.546621,-7.970550
1760390991613291,0.000261,0.001425,0.000239,0.406841,-5.548223,-7.967454
1760390991614252,-0.001739,-0.001870,-0.000171,0.411622,-5.545006,-7.973784
1760390991615227,-0.000116,0.001420,-0.001820,0.416391,-5.546590,-7.967395
1760390991616193,0.006019,-0.003099,-0.000535,0.421085,-5.532130,-7.959455
1760390991617217,0.003574,-0.001467,-0.002604,0.419461,-5.551439,-7.973577
1760390991618198,-0.001317,-0.000236,-0.001394,0.422815,-5.548205,-7.978416
1760390991619317,-0.001750,-0.001086,-0.001814,0.416485,-5.549817,-7.978504
1760390991620273,-0.000511,-0.000656,-0.001798,0.410116,-5.559427,-7.980092
1760390991621240,-0.000543,-0.001903,-0.001382,0.411557,-5.557774,-7.965696
1760390991622215,0.000717,-0.005187,-0.001765,0.418041,-5.556262,-7.978433
1760390991623199,0.000722,0.001413,-0.001804,0.408468,-5.559381,-7.973689
1760390991624333,-0.002127,-0.000228,-0.002216,0.411485,-5.554569,-7.964086
1760390991625300,0.001124,-0.001058,-0.002608,0.419495,-5.546527,-7.962564
1760390991626258,0.003576,-0.000647,0.000261,0.424374,-5.559335,-7.970407
1760390991627219,0.001926,0.000605,-0.000151,0.418105,-5.548234,-7.980125
1760390991628189,0.001550,-0.001468,-0.001369,0.418036,-5.559371,-7.972055
1760390991629320,-0.000524,0.002666,-0.001819,0.410048,-5.545011,-7.976954
1760390991630285,-0.000901,-0.001054,-0.003446,0.410039,-5.549806,-7.976923
1760390991631263,-0.002132,-0.000251,-0.002244,0.402013,-5.556281,-7.972131
1760390991632225,-0.000486,0.000565,-0.003446,0.411579,-5.549820,-7.967338
1760390991637068,-0.001343,0.001016,0.000640,0.414733,-5.553047,-7.970466
1760390991637083,-0.002105,-0.001900,-0.005497,0.414761,-5.548240,-7.975265
1760390991637087,-0.000118,-0.001856,-0.000568,0.414639,-5.544986,-7.959399
1760390991637090,-0.001332,-0.002696,-0.002224,0.406782,-5.546600,-7.967457
1760390991637274,0.002338,0.001413,-0.001385,0.421229,-5.554569,-7.975233
1760390991638254,-0.001325,-0.003946,-0.001388,0.408319,-5.532173,-7.964292
1760390991639217,-0.000082,-0.002294,-0.001792,0.411490,-5.530584,-7.957958
1760390991640332,0.003555,-0.004333,-0.000959,0.416364,-5.533854,-7.975352
1760390991641208,-0.000519,0.001832,-0.002227,0.403813,-5.549896,-7.986534
1760390991642344,-0.000117,0.000186,0.000250,0.417944,-5.551406,-7.967317
1760390991643319,0.000348,0.000163,-0.003449,0.402022,-5.553020,-7.964244
1760390991644291,0.006803,0.000225,0.002326,0.419591,-5.554568,-7.967325
1760390991645288,-0.000918,0.001406,-0.001815,0.398829,-5.538612,-7.970701
1760390991646253,-0.000118,0.002263,-0.000994,0.416426,-5.549754,-7.968969
1760390991647216,-0.000125,0.001830,-0.001006,0.395614,-5.543407,-7.962810
1760390991648199,-0.001348,-0.005180,-0.000579,0.411562,-5.535440,-7.976932
1760390991649330,-0.001712,-0.002312,-0.003036,0.410015,-5.548182,-7.968969
1760390991650295,0.002352,-0.000218,-0.003021,0.408384,-5.541769,-7.967411
1760390991651272,-0.000126,0.001440,0.002269,0.421185,-5.543405,-7.968961
1760390991652244,-0.002149,-0.002720,-0.000963,0.421186,-5.552959,-7.973636
1760390991653199,-0.000484,0.000576,-0.003858,0.414855,-5.552989,-7.978462
1760390991654320,-0.000504,-0.002279,-0.000577,0.406810,-5.537029,-7.972265
1760390991655291,0.003606,-0.000237,-0.003011,0.413234,-5.538642,-7.978551
1760390991656259,0.005225,-0.000226,-0.001760,0.413151,-5.536926,-7.962705
1760390991657226,0.002750,-0.001051,-0.000149,0.408361,-5.549821,-7.959465
1760390991658194,0.000738,-0.000678,-0.003828,0.398802,-5.533848,-7.965980
1760390991659322,0.001147,-0.005169,-0.003820,0.400453,-5.554584,-7.962713
1760390991660277,0.001521,0.002235,-0.002640,0.403754,-5.554674,-7.980132
1760390991661239,0.000707,-0.002701,-0.000560,0.406891,-5.554490,-7.964243
1760390991662215,0.001932,-0.000637,-0.001376,0.414667,-5.538576,-7.964141
1760390991663342,-0.004188,0.000588,-0.001009,0.416294,-5.559302,-7.960871
1760390991664308,-0.001729,-0.003127,-0.001391,0.413203,-5.554569,-7.968924
1760390991665274,-0.001747,-0.002695,-0.000184,0.408347,-5.549750,-7.957880
1760390991666242,-0.000162,-0.001028,0.002284,0.421198,-5.541782,-7.972093
1760390991667198,0.001938,-0.003113,0.000686,0.432282,-5.535394,-7.970474
1760390991668190,0.000292,-0.004774,-0.000155,0.425858,-5.549686,-7.956158
1760390991669321,0.003969,0.000186,-0.002187,0.410067,-5.557809,-7.973669
1760390991670286,-0.001745,-0.001470,0.000248,0.405312,-5.549789,-7.967477
1760390991671252,0.001928,-0.004343,-0.001368,0.410042,-5.548170,-7.967414
1760390991672220,-0.002931,0.000583,-0.000575,0.403487,-5.554498,-7.945125
1760390991673199,-0.002564,-0.001874,0.001050,0.408369,-5.554628,-7.960990
1760390991674321,0.000698,-0.003107,0.001082,0.419508,-5.551374,-7.970428
1760390991675293,0.001133,0.002240,-0.002625,0.411654,-5.559383,-7.976838
1760390991676261,-0.000505,0.000590,-0.003047,0.411474,-5.551350,-7.957769
1760390991677228,0.001514,-0.002684,0.000261,0.424279,-5.564085,-7.959240
1760390991678196,-0.001707,-0.001500,-0.003438,0.406960,-5.540193,-7.975486
1760390991679315,0.002756,0.000192,-0.003017,0.418054,-5.548210,-7.980018
1760390991680279,0.001938,0.001006,-0.000559,0.414823,-5.549789,-7.970561
1760390991681240,0.001120,-0.001484,-0.001796,0.410020,-5.545052,-7.972168
1760390991682213,0.000301,-0.001481,-0.000166,0.411605,-5.551409,-7.973661
1760390991683193,0.001970,-0.000641,-0.003025,0.406787,-5.546604,-7.972166
1760390991684318,0.001119,0.001005,-0.001812,0.411620,-5.548210,-7.970559
1760390991685284,0.001528,-0.003097,-0.000972,0.414772,-5.543396,-7.970575
1760390991686242,-0.000918,-0.000221,-0.001811,0.418051,-5.541854,-7.983282
1760390991687210,-0.005009,-0.001875,-0.000605,0.402015,-5.533826,-7.969079
1760390991688194,0.000753,-0.002295,-0.003836,0.403511,-5.529049,-7.965898
1760390991689325,-0.000084,-0.004361,-0.003011,0.422708,-5.551406,-7.967277
1760390991690290,-0.000934,-0.001871,-0.000162,0.414783,-5.552955,-7.965749
1760390991691258,0.001096,0.000616,0.001068,0.419566,-5.548241,-7.964142
1760390991692219,-0.001315,0.000606,-0.000188,0.406785,-5.546602,-7.967416
1760390991693334,0.003154,-0.001472,-0.003023,0.411519,-5.544949,-7.962654
1760390991694313,-0.002577,-0.001861,0.001884,0.406885,-5.548256,-7.975393
1760390991695288,-0.002958,-0.001457,-0.001414,0.413316,-5.544979,-7.981739
1760390991696314,-0.001315,0.001830,-0.004678,0.401978,-5.546615,-7.964273
1760390991697281,0.002331,0.002654,0.001498,0.403656,-5.565820,-7.973648
1760390991698256,-0.001736,-0.003935,-0.000567,0.413218,-5.556187,-7.975262
1760390991699215,-0.000079,0.002656,-0.002620,0.411641,-5.545038,-7.984843
1760390991700328,-0.000105,-0.001062,-0.000972,0.409928,-5.538625,-7.969007
1760390991701306,0.003973,-0.002271,0.001510,0.408369,-5.557775,-7.965707
1760390991702279,0.003959,-0.000628,0.000667,0.417983,-5.530662,-7.972183
1760390991703248,0.000711,0.000588,-0.001395,0.425865,-5.540240,-7.964104
1760390991704215,0.002730,-0.001865,0.001075,0.416366,-5.548215,-7.965740
1760390991705196,0.000279,-0.005162,0.002302,0.411541,-5.543390,-7.965750
1760390991706312,-0.003771,-0.001060,-0.000985,0.419594,-5.551414,-7.968889
1760390991707266,-0.000082,-0.000652,-0.002628,0.402181,-5.569014,-7.976873
1760390991708246,0.001571,-0.003529,-0.003403,0.403546,-5.551428,-7.961040
1760390991709216,-0.000495,-0.002297,-0.000163,0.411607,-5.541805,-7.970584
1760390991710340,0.001553,0.000159,-0.001796,0.424446,-5.544959,-7.984801
1760390991711309,-0.000096,-0.001056,-0.002620,0.411609,-5.554568,-7.972088
1760390991712269,-0.000464,-0.001909,-0.006311,0.406961,-5.556171,-7.975368
1760390991713225,0.000291,0.001415,-0.001406,0.400536,-5.548175,-7.977003
1760390991714345,-0.002178,0.002245,0.000637,0.422728,-5.557723,-7.962501
1760390991715328,0.001910,0.000628,0.001478,0.416472,-5.564149,-7.970492
1760390991716299,-0.001718,-0.003134,-0.004278,0.413332,-5.551373,-7.981637
1760390991717269,-0.000097,0.000175,-0.000983,0.413186,-5.535437,-7.972207
1760390991718250,0.001099,-0.001031,0.001072,0.418011,-5.549823,-7.976867
1760390991719209,0.001932,-0.002711,-0.002200,0.405251,-5.533837,-7.972258
1760390991720323,0.004406,0.003080,-0.000955,0.424198,-5.532223,-7.954681
1760390991721293,0.000712,0.000171,-0.002612,0.399047,-5.561020,-7.977004
1760390991722283,0.002734,-0.001038,0.000680,0.406935,-5.543430,-7.978607
1760390991723252,-0.004585,-0.002712,-0.002636,0.408521,-5.556180,-7.978454
1760390991724219,0.000304,-0.003544,-0.002206,0.405211,-5.553041,-7.978441
1760390991725199,-0.000066,-0.003151,-0.003419,0.409978,-5.545092,-7.973704
1760390991726315,-0.000496,0.000572,-0.004689,0.417964,-5.544965,-7.968948
1760390991727265,-0.000121,0.000620,0.001060,0.422819,-5.551348,-7.975243
1760390991728242,0.001538,-0.001465,-0.002602,0.427563,-5.560999,-7.975149
1760390991729221,-0.001769,-0.000661,-0.000993,0.422722,-5.545028,-7.970496
1760390991730198,0.000324,-0.000631,-0.000984,0.409988,-5.551411,-7.968967
1760390991731337,0.001946,-0.000228,-0.001374,0.403637,-5.551418,-7.970573
1760390991732298,0.002752,-0.000660,-0.003022,0.406709,-5.543428,-7.962650
1760390991733253,0.000725,0.001434,-0.000570,0.411595,-5.551400,-7.968953
1760390991734216,0.000318,-0.000246,-0.002611,0.421242,-5.556240,-7.978446
1760390991735199,0.000734,0.003471,-0.002630,0.418020,-5.546550,-7.965793
1760390991736336,0.003577,0.002237,-0.001790,0.414857,-5.546605,-7.978519
1760390991737303,-0.001272,-0.002307,-0.004246,0.413310,-5.546603,-7.978507
1760390991738270,0.000696,-0.001454,0.000666,0.405226,-5.553019,-7.968999
1760390991739229,-0.000490,-0.003552,-0.003843,0.409959,-5.529098,-7.978567
1760390991740342,-0.003751,-0.001087,-0.003051,0.400409,-5.533884,-7.969109
1760390991741192,-0.003781,0.002211,-0.001841,0.416324,-5.543363,-7.957830
1760390991742323,0.001540,-0.000236,-0.002199,0.422751,-5.546572,-7.967323
1760390991743315,-0.004163,-0.003140,-0.003047,0.413174,-5.559343,-7.965730
1760390991744283,0.001096,0.003492,0.001051,0.413121,-5.549772,-7.972098
1760390991745251,-0.001286,0.000164,-0.003048,0.413146,-5.541759,-7.957866
1760390991746209,0.000315,-0.000656,-0.002619,0.405224,-5.540230,-7.980145
1760390991747330,0.001928,0.000583,-0.003036,0.395730,-5.545021,-7.977082
1760390991748300,0.003166,0.000199,-0.001376,0.411592,-5.549842,-7.973661
1760390991749269,0.001918,-0.003100,-0.000146,0.405193,-5.548188,-7.962637
1760390991750244,-0.002955,0.000161,-0.003455,0.419541,-5.541758,-7.964207
1760390991751212,0.004002,-0.006017,-0.000917,0.432277,-5.549701,-7.962446
1760390991752335,-0.002939,-0.000262,-0.002653,0.429204,-5.545003,-7.975261
1760390991753292,0.000320,-0.000228,-0.002628,0.416377,-5.565775,-7.973572
1760390991754252,-0.000896,0.001407,-0.002642,0.416419,-5.557793,-7.973667
1760390991755227,-0.001324,0.000992,-0.001811,0.424384,-5.541803,-7.973678
1760390991756193,0.002347,-0.001028,-0.000558,0.408497,-5.546632,-7.976981
1760390991757331,0.001996,-0.001890,-0.003819,0.406790,-5.545000,-7.969036
1760390991758299,0.001916,-0.001425,0.001887,0.401989,-5.535472,-7.973855
1760390991759258,0.003612,-0.001870,-0.001362,0.425881,-5.536919,-7.954665
1760390991760214,0.003585,-0.001890,-0.002996,0.411477,-5.535389,-7.962656
1760390991761193,-0.000113,-0.003927,-0.000567,0.405297,-5.551461,-7.978541
1760390991762331,0.003168,-0.001875,-0.002603,0.414696,-5.552990,-7.968845
1760390991763305,-0.002531,-0.002719,-0.000988,0.413056,-5.551364,-7.970375
1760390991764281,-0.000102,-0.001876,-0.000974,0.406776,-5.554632,-7.970551
1760390991765247,0.000308,0.001822,-0.001387,0.418090,-5.545045,-7.981689
1760390991766205,0.003182,0.001022,-0.001391,0.416366,-5.548170,-7.970525
1760390991767324,0.000283,0.001431,0.000657,0.414664,-5.543395,-7.965745
1760390991768294,0.000329,-0.000656,-0.003425,0.405341,-5.548259,-7.980206
1760390991769261,-0.001743,0.000583,0.000245,0.421110,-5.546581,-7.970434
1760390991770227,0.001112,0.002254,0.000235,0.417863,-5.556185,-7.959335
1760390991771218,-0.003404,0.003072,0.000204,0.411502,-5.538608,-7.965801
1760390991772340,-0.000080,-0.003124,-0.003014,0.406837,-5.535403,-7.969083
1760390991773298,0.004015,-0.001883,-0.003806,0.408503,-5.554604,-7.970557
1760390991774253,-0.004610,-0.001060,-0.001448,0.409942,-5.532213,-7.968987
1760390991775226,-0.002146,-0.003938,0.001065,0.413318,-5.543405,-7.978603
1760390991776193,0.002747,-0.005589,-0.001352,0.411572,-5.533820,-7.973806
1760390991777320,0.001964,-0.001476,-0.003014,0.412998,-5.554530,-7.949777
1760390991778297,0.002355,0.000597,-0.001788,0.417746,-5.548147,-7.943445
1760390991779256,0.000323,-0.001486,-0.001797,0.419530,-5.537002,-7.962617
1760390991780213,0.004391,-0.001047,-0.003007,0.408371,-5.556159,-7.962560
1760390991781196,0.003182,0.002654,-0.003835,0.419532,-5.541736,-7.962615
1760390991782330,-0.000153,-0.002704,0.003133,0.421313,-5.546606,-7.980094
1760390991783301,0.002788,-0.001477,-0.001786,0.410026,-5.552964,-7.970520
1760390991784266,-0.001329,-0.001057,-0.003034,0.430789,-5.549748,-7.973622
1760390991785241,0.002333,-0.003508,-0.000140,0.416450,-5.556186,-7.983150
1760390991786199,-0.002530,0.001380,-0.005510,0.419685,-5.548209,-7.983202
1760390991787318,0.003196,0.002655,-0.003830,0.414931,-5.549834,-7.983234
1760390991788290,-0.001736,-0.000621,-0.001007,0.400256,-5.543321,-7.957872
1760390991789260,-0.000905,-0.003103,-0.002632,0.417856,-5.548138,-7.959346
1760390991790226,-0.000079,-0.005600,-0.001787,0.414721,-5.556131,-7.959358
1760390991791353,-0.002168,0.001423,0.001463,0.420976,-5.543370,-7.954590
1760390991792324,-0.001326,0.000993,-0.002229,0.409916,-5.546536,-7.956262
1760390991793280,-0.000463,-0.000229,-0.002606,0.408419,-5.540206,-7.962705
1760390991794243,0.002778,0.002243,-0.005069,0.408422,-5.546621,-7.970609
1760390991795215,-0.005363,-0.001907,-0.003878,0.422747,-5.556227,-7.972011
1760390991796216,0.000292,0.001816,-0.000585,0.416391,-5.562561,-7.967261
1760390991797344,0.001934,-0.001480,-0.002595,0.403585,-5.565790,-7.967271
1760390991798312,-0.000507,0.000583,-0.003046,0.413166,-5.533886,-7.981704
1760390991799280,-0.001334,0.001422,-0.003064,0.405336,-5.549848,-7.976985
1760390991800236,-0.003795,-0.001461,-0.001425,0.410165,-5.551457,-7.983297
1760390991801205,0.000318,0.001405,-0.000974,0.387846,-5.546694,-7.981901
1760390991802336,-0.000081,-0.000635,-0.001802,0.391087,-5.557917,-7.989741
1760390991803304,0.000706,-0.004773,-0.000974,0.403531,-5.536995,-7.962711
1760390991804269,0.000727,0.003058,-0.002213,0.422612,-5.528998,-7.959409
1760390991805234,-0.000516,0.003056,-0.001407,0.411790,-5.559448,-7.994370
1760390991806203,0.002328,-0.001045,-0.000159,0.407035,-5.546676,-7.991320
1760390991807321,-0.000903,-0.001499,-0.003041,0.400538,-5.554608,-7.973783
1760390991808291,0.003166,-0.002269,-0.000953,0.405298,-5.553066,-7.978519
1760390991809262,-0.001363,-0.000226,0.001871,0.408408,-5.541887,-7.969017
1760390991810228,-0.001325,0.000984,-0.002230,0.414781,-5.556177,-7.968877
1760390991811357,0.001930,-0.001042,0.000261,0.403661,-5.545079,-7.976996
1760390991812318,-0.000040,-0.002729,-0.005076,0.429255,-5.556137,-7.978364
1760390991813284,0.001965,-0.003948,-0.003419,0.408485,-5.541851,-7.978568
1760390991814253,0.002770,0.001833,-0.000970,0.405240,-5.546655,-7.973780
1760390991815227,0.003603,0.002253,-0.002608,0.419589,-5.562553,-7.976771
1760390991816203,-0.002133,-0.002295,-0.000585,0.405320,-5.565844,-7.984832
1760390991817332,-0.003364,-0.004368,-0.002632,0.413259,-5.551471,-7.975286
1760390991818299,-0.002554,-0.001461,0.001873,0.408477,-5.553056,-7.978500
1760390991819258,0.000323,-0.001874,-0.001373,0.413290,-5.562622,-7.980007
1760390991820223,0.000687,0.001462,0.000658,0.416375,-5.541788,-7.964218
1760390991821192,-0.000091,-0.001062,-0.000976,0.416264,-5.552991,-7.964115
1760390991822323,0.002797,-0.005580,0.000705,0.418127,-5.554538,-7.973737
1760390991823290,0.001937,0.001014,0.000251,0.409896,-5.544967,-7.953100
1760390991824256,0.003137,0.001453,0.001082,0.418025,-5.559425,-7.972047
1760390991825222,-0.002153,-0.004362,-0.001802,0.411607,-5.553037,-7.970544
1760390991826191,0.001135,-0.002284,-0.001380,0.413140,-5.546593,-7.961030
1760390991827320,0.001145,-0.002292,-0.002597,0.419720,-5.546610,-7.981688
1760390991828290,-0.004612,0.000583,-0.000608,0.427508,-5.530605,-7.973663
1760390991829260,0.002325,0.001843,0.001478,0.422732,-5.556121,-7.970436
1760390991830227,0.005192,-0.000616,-0.000546,0.429024,-5.535318,-7.959363
1760390991831355,-0.002176,-0.001891,-0.000987,0.411662,-5.540198,-7.976977
1760390991832316,-0.001297,0.003055,-0.005102,0.406795,-5.562592,-7.964108
1760390991833273,-0.000098,0.001401,-0.000984,0.414849,-5.543439,-7.969013
1760390991834253,-0.002917,0.001790,-0.005510,0.430689,-5.556130,-7.964021
1760390991835227,0.002732,0.000185,0.000255,0.413083,-5.546612,-7.959392
1760390991836193,0.000326,-0.001883,-0.002607,0.408301,-5.549782,-7.948333
1760390991837321,-0.001769,0.002249,0.000222,0.400367,-5.564216,-7.962600
1760390991838288,-0.002953,-0.000233,-0.003471,0.405234,-5.540217,-7.970687
1760390991839247,-0.000503,-0.003537,-0.001803,0.397213,-5.538605,-7.965983
1760390991840203,0.002358,-0.002284,-0.000551,0.406868,-5.540237,-7.975410
1760390991841234,0.000313,0.001411,-0.002221,0.403685,-5.538666,-7.977037
1760390991842206,0.001934,-0.001891,-0.001785,0.405152,-5.548257,-7.965780
1760390991843488,-0.000520,-0.001064,-0.000997,0.406939,-5.541862,-7.980207
1760390991844299,0.001906,0.001425,0.000234,0.409937,-5.544995,-7.968941
1760390991845265,-0.003394,-0.001479,-0.000991,0.402183,-5.541861,-7.981861
1760390991846224,-0.002123,0.002638,-0.004277,0.411819,-5.538667,-7.986593
1760390991847193,0.002339,0.001407,-0.002602,0.411674,-5.556221,-7.970537
1760390991848195,-0.001340,-0.000238,-0.002641,0.406764,-5.553051,-7.970538
1760390991849325,-0.000137,0.004734,-0.001017,0.424326,-5.536997,-7.975271
1760390991850290,0.003148,0.005980,-0.001412,0.408433,-5.546640,-7.976926
1760390991851256,-0.001342,-0.004765,-0.001808,0.414864,-5.551462,-7.981628
1760390991852224,-0.000082,-0.001862,0.000663,0.419539,-5.533847,-7.975293
1760390991853193,0.001136,0.000167,-0.003439,0.414626,-5.540185,-7.951508
1760390991854316,-0.000077,-0.001062,-0.005498,0.417962,-5.549746,-7.965734
1760390991855297,0.001126,-0.003108,-0.001793,0.403700,-5.562553,-7.972131
1760390991856265,0.001957,-0.001052,-0.001375,0.402020,-5.564150,-7.959375
1760390991857232,-0.000054,-0.001893,-0.005076,0.400486,-5.545033,-7.973849
1760390991858200,0.003164,-0.005580,0.000284,0.418066,-5.540222,-7.980087
1760390991859319,-0.002927,0.001797,-0.004273,0.389385,-5.546599,-7.972363
1760390991860275,-0.003382,0.000167,-0.001424,0.398757,-5.543361,-7.964247
1760390991861240,-0.000494,-0.004756,-0.002195,0.398883,-5.544993,-7.981733
1760390991862220,0.002774,0.001001,-0.002613,0.413183,-5.559347,-7.965752
1760390991863200,-0.000912,-0.001869,-0.000978,0.403540,-5.541820,-7.962656
1760390991864325,-0.002998,0.001418,0.000639,0.409993,-5.535419,-7.976990
1760390991865292,0.001108,-0.000642,-0.001806,0.397096,-5.546578,-7.953167
1760390991866250,-0.000111,0.003474,-0.002644,0.405100,-5.535419,-7.956371
1760390991867210,0.002757,0.000179,-0.001377,0.408386,-5.548198,-7.962665
1760390991868341,-0.001277,-0.002284,-0.002608,0.421097,-5.549809,-7.972003
1760390991869320,0.002364,-0.003120,-0.000540,0.414700,-5.538564,-7.964161
1760390991870285,0.001526,0.001416,-0.001809,0.416395,-5.546575,-7.962593
1760390991871253,0.000714,-0.001869,-0.001381,0.424319,-5.548211,-7.970478
1760390991872214,0.000725,-0.001482,-0.000974,0.424247,-5.544937,-7.962546
1760390991873329,-0.000105,0.001431,-0.001810,0.421209,-5.549734,-7.960985
1760390991874253,-0.001759,0.002645,-0.001009,0.406871,-5.551382,-7.972167
1760390991875227,-0.000521,-0.001483,-0.000563,0.410018,-5.543466,-7.967409
1760390991876210,-0.001338,-0.001065,-0.000184,0.414876,-5.554608,-7.976863
1760390991877339,-0.000117,0.003484,0.001468,0.429151,-5.541752,-7.967327
1760390991878306,-0.002539,-0.001897,-0.001398,0.414787,-5.556139,-7.964128
1760390991879265,0.000713,-0.001474,0.001062,0.416357,-5.536958,-7.964258
1760390991880221,0.001914,-0.002674,0.000672,0.419587,-5.559328,-7.968872
1760390991881197,-0.001337,-0.003095,0.001886,0.416521,-5.564207,-7.976837
1760390991882337,0.001503,0.001438,0.001072,0.403644,-5.546567,-7.973775
1760390991883313,0.002316,0.001005,-0.000557,0.409983,-5.554559,-7.961022
1760390991884278,0.002742,0.000186,-0.000965,0.414657,-5.530592,-7.961050
1760390991885244,-0.001741,-0.000634,-0.001827,0.419501,-5.545005,-7.970472
1760390991886201,-0.000946,0.004308,-0.000599,0.413166,-5.551441,-7.965778
1760390991887319,0.000299,-0.001461,-0.000557,0.413121,-5.541845,-7.959449
1760390991888291,0.000284,-0.004333,0.000690,0.419576,-5.538611,-7.970564
1760390991889260,0.001926,-0.002282,0.002749,0.425822,-5.533770,-7.957798
1760390991890235,0.003606,-0.001480,-0.003396,0.411487,-5.533783,-7.961126
1760390991891210,-0.001301,-0.000662,-0.001806,0.405219,-5.546659,-7.983256
1760390991892332,0.000331,-0.001073,-0.001793,0.410039,-5.560983,-7.975225
1760390991893289,0.003969,-0.001463,0.000266,0.403570,-5.541807,-7.957965
1760390991894254,0.000731,-0.002283,-0.002611,0.421057,-5.546571,-7.962559
1760390991895229,0.000739,-0.003123,0.000254,0.406690,-5.554578,-7.956223
1760390991896252,0.000259,0.000583,-0.000987,0.403694,-5.549858,-7.978557
1760390991897251,0.000719,-0.005178,-0.000136,0.422691,-5.567297,-7.965558
1760390991898218,0.001947,0.000179,-0.003429,0.413204,-5.552937,-7.973679
1760390991899336,-0.000940,-0.003098,0.000229,0.408427,-5.551377,-7.968995
1760390991900291,-0.003385,-0.001041,-0.001818,0.408331,-5.548165,-7.962615
1760390991901239,0.004400,-0.001467,-0.002176,0.408464,-5.541848,-7.969091
1760390991902214,0.001559,-0.000247,-0.003018,0.419587,-5.553014,-7.976830
1760390991903342,-0.000895,0.001812,-0.005090,0.422796,-5.541808,-7.975284
1760390991904317,0.001149,-0.003544,-0.002193,0.429273,-5.545059,-7.991140
1760390991905284,0.001523,-0.003101,-0.000550,0.409982,-5.548285,-7.976917
1760390991906241,-0.001696,-0.002303,-0.003465,0.422765,-5.546579,-7.968926
1760390991907198,-0.000948,-0.001465,0.000651,0.414572,-5.548076,-7.946625
1760390991908329,0.001113,-0.001042,0.000651,0.406920,-5.541788,-7.978584
1760390991909298,-0.002935,0.001810,-0.002644,0.401993,-5.543389,-7.965871
1760390991910264,-0.001722,-0.001043,-0.000591,0.411778,-5.556268,-7.992769
1760390991911246,0.004409,-0.001882,-0.002583,0.398917,-5.549860,-7.983384
1760390991912226,0.000320,0.002213,-0.003850,0.410031,-5.535467,-7.975417
1760390991913341,0.001524,0.002231,-0.000575,0.419461,-5.549827,-7.965669
1760390991914312,0.002317,0.000611,0.000254,0.416299,-5.549786,-7.959396
1760390991915289,-0.001289,-0.001055,-0.003035,0.424257,-5.541819,-7.953065
1760390991916257,-0.000517,-0.001874,0.000672,0.424276,-5.543371,-7.956219
1760390991917225,-0.001344,-0.000235,-0.001394,0.427613,-5.540212,-7.980042
1760390991918204,-0.002141,-0.002289,-0.000572,0.417951,-5.530659,-7.976916
1760390991919320,0.003163,-0.001467,0.001102,0.408442,-5.537006,-7.973846
1760390991920275,-0.000887,-0.004780,-0.004672,0.414842,-5.543415,-7.975313
1760390991921240,-0.002557,-0.002294,-0.000990,0.408452,-5.533855,-7.972244
1760390991922214,-0.000529,-0.000218,0.000657,0.419608,-5.540210,-7.978511
1760390991923339,-0.002141,-0.000243,-0.001408,0.400537,-5.546604,-7.972279
1760390991924305,-0.000109,-0.003129,-0.000970,0.406816,-5.549808,-7.965813
1760390991925280,-0.003335,0.000583,-0.003078,0.408300,-5.533856,-7.969003
1760390991926237,0.004821,-0.001464,-0.001768,0.409933,-5.537006,-7.967416
1760390991927204,0.000365,-0.003969,-0.004665,0.425843,-5.548164,-7.954533
1760390991928345,-0.003821,-0.000218,0.001016,0.429225,-5.556178,-7.981506
1760390991929317,0.001573,-0.001902,-0.004653,0.414751,-5.554559,-7.976789
1760390991930284,0.001921,0.000194,-0.000154,0.405330,-5.546593,-7.976986
1760390991931250,0.001126,-0.002298,0.000263,0.410005,-5.548205,-7.968989
1760390991932233,0.000317,0.000599,-0.002213,0.416407,-5.551429,-7.968884
1760390991933346,0.001126,-0.002296,-0.000138,0.402060,-5.553075,-7.973754
1760390991934312,-0.003775,-0.000659,-0.000603,0.429209,-5.546575,-7.984685
1760390991935288,-0.000133,0.001438,0.000239,0.417941,-5.540100,-7.959445
1760390991936256,-0.004544,-0.000248,-0.005102,0.433832,-5.551386,-7.964004
1760390991937222,-0.000511,-0.002284,-0.000163,0.434009,-5.559394,-7.976702
1760390991938350,0.001960,-0.000242,-0.003842,0.414893,-5.541812,-7.976939
1760390991939319,-0.000104,-0.003545,-0.003027,0.405320,-5.548281,-7.973843
1760390991940274,0.001932,0.004312,-0.001798,0.406676,-5.536979,-7.951595
1760390991941240,-0.002934,0.000165,-0.002225,0.418058,-5.556166,-7.965772
1760390991942214,0.001538,-0.000643,-0.001384,0.405236,-5.551441,-7.976898
1760390991943341,-0.002167,0.000168,0.000641,0.408527,-5.548212,-7.973831
1760390991944306,-0.001727,-0.001879,-0.000582,0.411680,-5.545009,-7.969021
1760390991945272,-0.001708,-0.002744,-0.005484,0.422756,-5.559349,-7.965662
1760390991946239,0.001537,-0.001452,-0.003019,0.400404,-5.541847,-7.967485
1760390991947196,-0.001291,-0.001506,-0.004668,0.419589,-5.557754,-7.964157
1760390991948328,-0.002581,-0.002299,0.001460,0.413051,-5.548162,-7.957793
1760390991949297,-0.000906,0.000614,-0.001408,0.413198,-5.546627,-7.968988
1760390991950265,-0.002152,0.001009,0.000229,0.406682,-5.546593,-7.954719
1760390991951233,0.001137,0.001843,-0.001813,0.403692,-5.540259,-7.973855
1760390991952208,0.003994,-0.001064,-0.003013,0.400449,-5.543407,-7.961127
1760390991953334,-0.002949,-0.001874,-0.001401,0.408474,-5.556238,-7.972141
1760390991954300,0.001553,-0.001042,-0.001372,0.424386,-5.560983,-7.978336
1760390991955278,0.000300,-0.000653,-0.002627,0.410082,-5.554597,-7.973751
1760390991956253,-0.001339,-0.002280,-0.000178,0.419667,-5.532193,-7.976989
1760390991957222,0.002339,0.005536,-0.001387,0.417964,-5.538532,-7.964214
1760390991958190,0.000707,0.001822,-0.002217,0.421174,-5.540184,-7.970571
1760390991959308,-0.000111,-0.000649,0.000250,0.416444,-5.567387,-7.973579
1760390991960272,0.001937,-0.000638,-0.000980,0.414782,-5.549763,-7.970501
1760390991961240,-0.001341,0.000169,-0.000989,0.408383,-5.559381,-7.964150
1760390991962214,-0.003366,0.000171,-0.000188,0.403628,-5.554624,-7.964221
1760390991963194,-0.000895,0.000560,-0.003027,0.416323,-5.548140,-7.965734
1760390991964318,-0.001735,-0.004774,-0.002208,0.411607,-5.545011,-7.968948
1760390991965285,0.001104,0.000195,0.000243,0.421082,-5.537050,-7.970487
1760390991966242,-0.001746,0.001807,-0.002654,0.403601,-5.543437,-7.973768
1760390991967211,0.002762,0.002246,-0.000566,0.419604,-5.541785,-7.972173
1760390991968194,-0.000508,0.000566,-0.001810,0.413216,-5.537023,-7.965878
1760390991969324,-0.001352,0.001839,-0.000180,0.411585,-5.530627,-7.962698
1760390991970289,0.002756,-0.001441,-0.000956,0.416452,-5.548194,-7.980023
1760390991971256,0.003587,0.000587,-0.002190,0.424399,-5.535398,-7.975332
1760390991972216,0.001501,-0.002691,0.001909,0.421075,-5.538616,-7.965774
1760390991973329,-0.000121,-0.000246,-0.000167,0.413150,-5.549779,-7.962562
1760390991974304,0.001117,-0.002694,-0.000156,0.410047,-5.544984,-7.972166
1760390991975275,-0.000513,-0.000649,-0.001787,0.411626,-5.549760,-7.967383
1760390991976251,0.003149,0.002258,-0.001382,0.416416,-5.546560,-7.973708
1760390991977219,0.001148,-0.002300,-0.003418,0.414818,-5.540166,-7.969044
1760390991978196,0.001534,-0.003112,-0.002604,0.409976,-5.554550,-7.961012
1760390991979313,-0.002487,-0.001916,-0.006316,0.405199,-5.545012,-7.965832
1760390991980268,-0.002538,0.001410,-0.002246,0.410068,-5.545033,-7.973772
1760390991981240,0.001175,-0.006424,-0.003406,0.413139,-5.540186,-7.968946
1760390991982215,0.002748,0.000606,-0.000153,0.419509,-5.549730,-7.957762
1760390991983196,-0.000476,0.001007,-0.002638,0.414848,-5.565824,-7.976789
1760390991984321,0.001934,0.001842,-0.002637,0.416338,-5.553020,-7.967353
1760390991985286,0.001118,0.000216,-0.000159,0.403626,-5.557837,-7.968992
1760390991986243,-0.000120,0.001831,-0.002625,0.408487,-5.543413,-7.980183
1760390991987200,0.000704,0.001021,0.001473,0.419685,-5.545002,-7.983212
1760390991988189,-0.003395,-0.000648,-0.000595,0.424535,-5.545012,-7.983233
1760390991989318,-0.001749,-0.002285,0.000664,0.414935,-5.552986,-7.981660
1760390991990283,0.001119,0.002665,-0.003468,0.413205,-5.552966,-7.968950
1760390991991248,-0.000923,0.000607,-0.001811,0.406832,-5.548276,-7.972211
1760390991992215,-0.003385,0.000610,-0.000189,0.410110,-5.554624,-7.969011
1760390991993329,-0.000895,-0.001077,-0.002629,0.400552,-5.562649,-7.975336
1760390991994253,-0.002175,-0.001073,-0.000979,0.413334,-5.551431,-7.986461
1760390991995235,0.001523,-0.000224,0.000660,0.421095,-5.554552,-7.962501
1760390991996244,0.003182,-0.000624,-0.002193,0.414638,-5.552895,-7.956120
1760390991997213,0.000300,-0.002711,-0.000147,0.411487,-5.549831,-7.960967
1760390991998340,-0.001343,0.001422,-0.000598,0.408402,-5.551416,-7.965832
1760390991999299,0.002344,0.000171,-0.002618,0.414831,-5.548255,-7.970571
1760390992000255,-0.001302,-0.000662,-0.003866,0.414849,-5.553044,-7.976894
1760390992001223,-0.002127,0.001003,-0.003469,0.414783,-5.551414,-7.973646
1760390992002214,0.000280,0.002242,-0.001820,0.395636,-5.549779,-7.972219
1760390992003342,0.001957,-0.001030,-0.000554,0.410146,-5.557873,-7.980054
1760390992004307,0.000726,-0.003130,-0.000965,0.422708,-5.553041,-7.967241
1760390992005273,0.000729,-0.000235,-0.002608,0.411646,-5.570486,-7.968851
1760390992006230,-0.000122,-0.003915,-0.000572,0.413212,-5.536979,-7.970626
1760390992007198,-0.000493,0.000968,-0.004683,0.417931,-5.548166,-7.964198
1760390992008339,-0.000490,0.000990,-0.001800,0.405283,-5.556203,-7.972181
1760390992009318,0.002763,0.002258,-0.002197,0.409985,-5.552987,-7.967371
1760390992010283,-0.000922,-0.003125,0.000252,0.411705,-5.559392,-7.976849
1760390992011248,-0.002556,0.000970,-0.001407,0.402020,-5.546588,-7.970619
1760390992012216,0.001935,0.000173,-0.001786,0.406807,-5.556190,-7.970514
1760390992013332,0.000302,-0.000637,-0.000987,0.421046,-5.546661,-7.964132
1760390992014253,0.000731,-0.001077,-0.002597,0.416440,-5.548233,-7.975322
1760390992015226,-0.000070,0.000152,-0.004658,0.400369,-5.535402,-7.959579
1760390992016202,-0.000089,-0.004784,-0.001781,0.419496,-5.551390,-7.962492
1760390992017330,0.003196,-0.001902,-0.000539,0.400367,-5.548255,-7.967420
1760390992018297,-0.000089,-0.004367,-0.001371,0.411560,-5.549789,-7.965781
1760390992019255,0.005608,-0.000217,0.000282,0.413280,-5.553049,-7.975286
1760390992020210,-0.001734,0.001418,-0.001823,0.406740,-5.545007,-7.964179
1760390992021341,-0.002958,-0.001479,-0.001828,0.413135,-5.562504,-7.960934
1760390992022319,0.001940,0.004286,-0.003453,0.421097,-5.546588,-7.960958
1760390992023313,0.003164,-0.001478,-0.001360,0.406813,-5.540226,-7.964292
1760390992024286,0.003572,-0.003116,-0.000124,0.421031,-5.541778,-7.959352
1760390992025295,0.003138,0.000596,-0.000973,0.401954,-5.549804,-7.956343
1760390992026255,0.000702,-0.001870,0.001482,0.408313,-5.546560,-7.959469
1760390992027213,0.004807,-0.001458,-0.002568,0.424263,-5.552954,-7.954563
1760390992028195,0.000717,0.000596,-0.001808,0.416406,-5.554635,-7.973672
1760390992029325,-0.000917,0.001410,-0.001405,0.406663,-5.543382,-7.953065
1760390992030299,0.001528,-0.000219,-0.001800,0.406787,-5.537033,-7.967439
1760390992031266,-0.001314,-0.003940,-0.001392,0.413111,-5.551396,-7.962557
1760390992032227,-0.001734,0.002651,-0.000993,0.419647,-5.549776,-7.968967
1760390992033342,-0.002145,-0.004370,-0.004672,0.413388,-5.543386,-7.975451
1760390992034313,-0.000500,0.000995,-0.002212,0.411650,-5.540222,-7.967477
1760390992035289,0.001523,0.001838,-0.001406,0.403686,-5.551429,-7.975351
1760390992036257,-0.000915,-0.003120,-0.000561,0.418007,-5.541854,-7.984840
1760390992037289,0.002751,0.000194,-0.002204,0.422831,-5.543461,-7.984802
1760390992038259,-0.002960,0.001405,-0.000609,0.414794,-5.545066,-7.980049
1760390992039218,0.000715,-0.000237,0.000254,0.418124,-5.551428,-7.986391
1760390992040331,0.000758,-0.001070,-0.003828,0.398806,-5.549843,-7.973787
1760390992041326,0.003969,-0.000220,-0.000958,0.405312,-5.549810,-7.983298
1760390992042297,0.000310,-0.003097,-0.000142,0.411700,-5.551452,-7.978527
1760390992043266,0.002779,-0.000653,-0.003426,0.419733,-5.548247,-7.988016
1760390992044245,0.000310,-0.000659,-0.003039,0.408430,-5.551383,-7.970553
1760390992045212,0.001524,0.002249,-0.001393,0.424305,-5.552990,-7.959329
1760390992046327,0.005216,-0.003939,-0.001758,0.419557,-5.543389,-7.973693
1760390992047265,-0.000114,-0.003495,0.002721,0.410070,-5.535425,-7.977032
1760390992048239,0.000715,0.000977,-0.003042,0.400543,-5.538658,-7.969152
1760390992049208,-0.000541,-0.002738,-0.001793,0.410083,-5.543447,-7.976971
1760390992050332,0.001106,0.001416,-0.001811,0.419444,-5.544956,-7.954658
1760390992051319,0.000308,-0.002727,-0.002188,0.424226,-5.535415,-7.964128
1760390992052281,-0.000516,0.000572,-0.002218,0.413215,-5.535381,-7.962707
1760390992053237,0.001105,0.000191,0.001487,0.419589,-5.543367,-7.967337
1760390992054361,-0.000071,-0.002311,-0.003016,0.417867,-5.543369,-7.960952
1760390992055331,-0.000914,0.000580,-0.003036,0.402024,-5.548254,-7.972194
1760390992056298,0.001126,0.003897,-0.003443,0.418079,-5.548198,-7.973742
1760390992057265,0.002377,-0.002309,-0.005452,0.414671,-5.541748,-7.956264
1760390992058241,0.000753,-0.004785,-0.002595,0.417902,-5.557754,-7.949833
1760390992059200,-0.001723,-0.004363,-0.000561,0.410061,-5.559403,-7.975232
1760390992060313,0.000294,-0.003112,0.001489,0.411684,-5.548255,-7.976957
1760390992061240,0.002360,-0.001865,-0.000136,0.411584,-5.537047,-7.973797
1760390992062215,0.001159,-0.000649,-0.002613,0.421144,-5.559283,-7.956168
1760390992063199,0.000738,-0.002680,-0.001370,0.408478,-5.565767,-7.970535
1760390992064538,0.000701,-0.000229,-0.002198,0.416270,-5.545047,-7.967319
1760390992065197,0.002763,-0.000618,-0.000128,0.416456,-5.545023,-7.984875
1760390992066314,0.003177,-0.002695,-0.000536,0.419739,-5.538631,-7.986507
1760390992067266,-0.001721,-0.002710,-0.000984,0.422782,-5.551362,-7.975228
1760390992068241,0.002356,-0.000644,-0.003023,0.414817,-5.556196,-7.973645
1760390992069212,-0.005024,-0.001884,-0.000189,0.422749,-5.551366,-7.967276
1760390992070336,-0.002150,0.001014,-0.001411,0.410042,-5.546619,-7.980092
1760390992071305,0.001524,0.000585,-0.003845,0.414802,-5.554607,-7.967331
1760390992072276,-0.001745,0.000581,-0.001009,0.416359,-5.544952,-7.970496
1760390992073231,-0.003369,-0.003558,-0.000573,0.410032,-5.536980,-7.975385
1760390992074355,0.001950,-0.003137,-0.001369,0.406990,-5.557794,-7.984890
1760390992075326,-0.001710,-0.001906,-0.003454,0.411597,-5.554588,-7.965779
1760390992076293,-0.002090,-0.003563,-0.003020,0.405272,-5.545047,-7.975402
1760390992077260,0.000736,-0.003546,-0.000564,0.414912,-5.559424,-7.972105
1760390992078227,-0.000116,0.001013,-0.001395,0.421380,-5.556261,-7.991138
1760390992079197,-0.000930,0.001836,-0.000597,0.411564,-5.545024,-7.965819
1760390992080310,0.002764,0.000590,-0.003426,0.419570,-5.548160,-7.972068
1760390992081239,0.000344,-0.000641,-0.002626,0.414754,-5.549789,-7.964156
1760390992082213,-0.002955,0.000586,-0.002653,0.408458,-5.557786,-7.975314
1760390992083341,-0.000108,-0.003119,-0.001381,0.400366,-5.545035,-7.967443
1760390992084307,-0.002155,-0.005169,0.001484,0.400427,-5.548222,-7.959520
1760390992085272,0.001153,-0.001902,-0.001366,0.430861,-5.543384,-7.989514
1760390992086239,-0.000923,-0.002687,0.000661,0.422745,-5.540220,-7.983152
1760390992087213,0.004420,-0.002705,-0.002578,0.419604,-5.548259,-7.978454
1760390992088200,-0.000915,-0.001060,-0.000576,0.411551,-5.551356,-7.965742
1760390992089330,-0.004204,-0.001862,0.000226,0.414799,-5.537043,-7.976934
1760390992090295,-0.000089,-0.002707,-0.001795,0.409980,-5.540309,-7.972198
1760390992091276,0.002344,0.000219,-0.000974,0.416445,-5.564207,-7.976787
1760390992092237,0.003540,0.002256,0.000246,0.416370,-5.552979,-7.968912
1760390992093203,0.000301,-0.001057,-0.001816,0.408422,-5.545000,-7.973801
1760390992094323,0.002764,0.000193,-0.000576,0.406907,-5.557874,-7.975368
1760390992095295,-0.002559,-0.000232,0.000634,0.406972,-5.554612,-7.975389
1760390992096305,-0.001717,-0.003953,-0.001390,0.413208,-5.546655,-7.981643
1760390992097271,0.000311,-0.000629,-0.003048,0.410101,-5.551438,-7.976910
1760390992098248,-0.002552,-0.001870,0.000236,0.419504,-5.546600,-7.962541
1760390992099206,-0.000900,0.005940,-0.003061,0.424428,-5.541772,-7.970587
1760390992100329,-0.000105,0.000171,-0.001806,0.403620,-5.554574,-7.964207
1760390992101300,-0.000897,-0.003130,-0.003438,0.405228,-5.537001,-7.969060
1760390992102276,0.005199,-0.000200,0.000692,0.408326,-5.546581,-7.959461
1760390992103246,-0.003364,-0.003134,-0.003452,0.409985,-5.533859,-7.965894
1760390992104212,-0.001324,-0.003125,-0.000568,0.405142,-5.562546,-7.956225
1760390992105337,-0.001722,0.000570,-0.003039,0.421148,-5.552955,-7.964092
1760390992106294,-0.002957,-0.000628,-0.002637,0.401957,-5.546595,-7.967416
1760390992107267,-0.001719,-0.003551,-0.004259,0.414816,-5.554594,-7.976830
1760390992108242,-0.001326,-0.004799,-0.001779,0.403653,-5.546636,-7.972208
1760390992109213,-0.000090,-0.001893,-0.002615,0.424277,-5.543381,-7.964118
1760390992110342,0.000280,-0.001887,0.000662,0.409926,-5.556169,-7.967287
1760390992111315,-0.002152,0.000581,-0.002233,0.416507,-5.549869,-7.986435
1760390992112278,-0.000942,0.001417,-0.001418,0.408390,-5.545007,-7.954778
1760390992113235,0.002376,0.001418,-0.001787,0.408255,-5.549779,-7.964134
1760390992114211,-0.002146,-0.000657,-0.001394,0.413189,-5.546600,-7.965814
1760390992115196,-0.000496,-0.001073,-0.002204,0.417953,-5.551411,-7.967296
1760390992116323,0.003180,-0.003928,-0.001352,0.419586,-5.540189,-7.964249
1760390992117290,-0.000882,-0.000671,-0.004276,0.409982,-5.552959,-7.957824
1760390992118257,0.001527,-0.000639,-0.002201,0.414847,-5.548278,-7.983202
1760390992119215,0.000298,-0.001446,0.000666,0.424418,-5.551394,-7.970474
1760390992120328,0.001145,-0.001070,-0.003010,0.414780,-5.557755,-7.968890
1760390992121306,0.000724,-0.001048,-0.001796,0.419475,-5.551398,-7.965659
1760390992122276,-0.002939,-0.001466,-0.002223,0.403641,-5.553010,-7.970523
1760390992123244,0.001515,0.002665,-0.000570,0.397276,-5.567363,-7.964198
1760390992124211,-0.001329,0.001408,-0.000580,0.419534,-5.544945,-7.968886
1760390992125337,0.001109,-0.001027,-0.001794,0.424397,-5.548170,-7.978418
1760390992126294,-0.001332,0.005148,0.000217,0.405355,-5.554637,-7.976967
1760390992127252,0.001945,0.000595,-0.003021,0.414813,-5.546677,-7.975305
1760390992128250,-0.001774,-0.000625,0.000642,0.411553,-5.544954,-7.961040
1760390992129219,-0.001754,0.000593,0.000235,0.406784,-5.543446,-7.970563
1760390992130198,-0.000925,-0.002277,-0.000147,0.405252,-5.554626,-7.973772
1760390992131326,0.000691,-0.000226,0.000651,0.417923,-5.538619,-7.964252
1760390992132287,-0.000473,-0.000266,-0.003441,0.409968,-5.540181,-7.965826
1760390992133244,-0.001744,0.000177,-0.000596,0.409928,-5.538589,-7.972185
1760390992134215,0.001114,-0.001894,-0.001793,0.406763,-5.559338,-7.957826
1760390992137054,0.002771,-0.001874,-0.002601,0.421197,-5.548202,-7.972050
1760390992137058,0.001116,-0.001065,-0.001789,0.416311,-5.549804,-7.965710
1760390992137230,-0.001339,0.001404,-0.003866,0.413221,-5.551387,-7.968916
1760390992138203,-0.002155,-0.000224,0.000634,0.405062,-5.554546,-7.951438
1760390992139324,-0.000501,-0.000616,-0.000169,0.406857,-5.559400,-7.976845
1760390992140283,-0.000506,0.000589,-0.002217,0.398971,-5.562664,-7.983287
1760390992141324,0.000317,0.000572,-0.003036,0.408435,-5.543370,-7.969045
1760390992142310,0.000310,-0.002695,0.000260,0.409948,-5.551394,-7.962619
1760390992143280,-0.000102,-0.001887,-0.000983,0.414799,-5.548273,-7.978488
1760390992144250,-0.000910,-0.003125,-0.001378,0.413213,-5.548200,-7.968995
1760390992145221,0.000722,-0.001881,-0.000957,0.413346,-5.554598,-7.976898
1760390992146344,0.001930,0.001824,-0.003030,0.419545,-5.533874,-7.972169
1760390992147311,-0.000517,0.000585,0.000647,0.417870,-5.543344,-7.959396
1760390992148286,0.002360,-0.002306,-0.003011,0.425943,-5.556186,-7.964075
1760390992149276,0.006016,0.000611,-0.000121,0.424388,-5.557769,-7.970417
1760390992150242,-0.000915,0.001433,-0.000997,0.411518,-5.543310,-7.953109
1760390992151213,-0.000906,-0.001471,0.000248,0.416319,-5.538602,-7.964232
1760390992152337,0.000698,-0.003949,-0.000976,0.424319,-5.544997,-7.975205
1760390992153295,0.000276,-0.004331,0.001898,0.405225,-5.549787,-7.970553
1760390992154255,-0.002143,-0.000666,-0.001811,0.410100,-5.548163,-7.965865
1760390992155511,-0.002118,-0.000659,-0.004674,0.413218,-5.552996,-7.975266
1760390992156326,0.003607,-0.002322,-0.005873,0.411659,-5.556210,-7.968951
1760390992157294,0.000292,-0.001457,-0.000576,0.406834,-5.557775,-7.970497
1760390992158281,0.002781,0.000997,-0.002190,0.416281,-5.549793,-7.968833
1760390992159243,-0.001340,0.002244,-0.000178,0.422720,-5.557738,-7.968792
1760390992160198,0.001505,-0.001874,0.001491,0.411423,-5.543394,-7.951506
1760390992161323,0.000707,-0.003946,-0.000136,0.397171,-5.540168,-7.954783
1760390992162295,-0.000086,-0.002308,-0.003026,0.416276,-5.535408,-7.964181
1760390992163277,-0.003406,0.002230,-0.001819,0.408425,-5.543452,-7.970595
1760390992164245,-0.002567,-0.000652,-0.001388,0.398852,-5.553001,-7.964256
1760390992165212,0.001960,-0.002290,-0.001376,0.413271,-5.536991,-7.967500
1760390992166578,-0.000100,-0.003545,-0.002217,0.417947,-5.546593,-7.967344
1760390992167221,0.003141,0.000589,-0.000567,0.413191,-5.538581,-7.970647
1760390992168204,-0.002150,-0.001068,-0.001813,0.417984,-5.538608,-7.972158
1760390992169334,0.000700,0.001842,0.001059,0.410122,-5.546632,-7.980127
1760390992170308,0.001534,-0.001854,-0.000152,0.408530,-5.554603,-7.975333
1760390992171278,0.001940,0.001003,-0.001376,0.410097,-5.548208,-7.976940
1760390992172241,-0.001747,-0.001049,-0.000990,0.394170,-5.545105,-7.980262
1760390992173199,-0.003388,0.000194,-0.000180,0.410083,-5.543422,-7.981786
1760390992174321,-0.003794,0.000992,-0.000205,0.417970,-5.548206,-7.970561
1760390992175298,-0.002958,-0.001484,-0.001796,0.414738,-5.541769,-7.961050
1760390992176269,0.001977,-0.003968,-0.005046,0.411568,-5.540128,-7.961062
1760390992177246,-0.000916,-0.001485,0.001066,0.411581,-5.541808,-7.973726
1760390992178215,-0.001337,-0.002285,0.001066,0.409959,-5.552999,-7.957876
1760390992179335,-0.002143,-0.002307,-0.003055,0.421085,-5.543314,-7.956223
1760390992180290,0.001531,-0.005163,-0.000128,0.394010,-5.551448,-7.973804
1760390992181241,0.001523,-0.003937,-0.002183,0.408357,-5.549823,-7.967358
1760390992182214,0.000703,-0.002710,-0.001365,0.405261,-5.564194,-7.970529
1760390992183197,0.001146,0.001021,-0.002613,0.421174,-5.552946,-7.967292
1760390992184331,-0.001751,-0.001486,-0.001804,0.426016,-5.549742,-7.970477
1760390992185297,-0.000916,-0.001893,-0.003038,0.400474,-5.540274,-7.973865
1760390992186255,0.005238,0.000173,-0.003820,0.422742,-5.543502,-7.972118
1760390992187214,0.002331,-0.000228,-0.000543,0.410135,-5.545090,-7.983307
1760390992188198,0.000315,-0.000237,-0.002622,0.403686,-5.549880,-7.973863
1760390992189327,-0.000529,-0.003123,-0.000152,0.408457,-5.527500,-7.977055
1760390992190292,-0.000474,0.001410,-0.004271,0.413096,-5.535327,-7.959472
1760390992191270,-0.003368,0.000993,-0.002233,0.425855,-5.546490,-7.951402
1760390992192230,-0.000517,-0.002287,0.000649,0.402028,-5.533859,-7.972270
1760390992193197,0.003546,-0.001037,-0.000559,0.413097,-5.549774,-7.960985
1760390992194318,0.001544,-0.001486,-0.003011,0.409941,-5.548237,-7.962621
1760390992195290,0.001965,-0.003921,-0.002186,0.414773,-5.545043,-7.970543
1760390992196304,-0.000481,-0.002298,-0.002615,0.414784,-5.546592,-7.968954
1760390992197271,0.001560,-0.001043,-0.001803,0.413184,-5.546600,-7.978429
1760390992198262,-0.000892,-0.000213,-0.000998,0.416302,-5.549797,-7.957788
1760390992199221,-0.001769,-0.001456,-0.000196,0.416361,-5.545044,-7.965774
1760390992200334,-0.001770,-0.001846,0.001874,0.389300,-5.553073,-7.967492
1760390992201301,-0.001346,0.000594,-0.000992,0.406846,-5.548230,-7.976940
1760390992202272,0.001113,0.002228,-0.000575,0.413348,-5.546614,-7.984903
1760390992203240,0.000694,0.000597,0.001481,0.410153,-5.548258,-7.986503
1760390992204207,0.000347,-0.003962,-0.003015,0.413233,-5.556195,-7.981608
1760390992205340,0.002361,-0.001886,-0.000558,0.410009,-5.543384,-7.972164
1760390992206297,0.001947,-0.001463,-0.000149,0.413114,-5.549757,-7.956226
1760390992207266,-0.000089,-0.003530,-0.000546,0.416260,-5.554578,-7.962492
1760390992208243,0.000710,-0.000638,-0.001397,0.419649,-5.556154,-7.972114
1760390992209214,0.001089,0.001416,-0.001410,0.409912,-5.552949,-7.965729
1760390992210338,-0.000496,-0.001038,-0.001389,0.408409,-5.559381,-7.970559
1760390992211308,-0.000510,-0.002293,-0.001807,0.401937,-5.554564,-7.954727
1760390992212280,0.000734,-0.003537,-0.001788,0.403641,-5.551466,-7.973791
1760390992213235,0.001518,0.000173,-0.000986,0.411664,-5.543470,-7.976961
1760390992214359,-0.003790,-0.002298,-0.001821,0.403750,-5.545047,-7.969105
1760390992215329,-0.000525,0.000601,-0.002220,0.416428,-5.551406,-7.975273
1760390992216296,-0.003005,0.000176,0.001040,0.411640,-5.554567,-7.968966
1760390992217263,-0.000099,-0.003135,-0.003425,0.416400,-5.543387,-7.973709
1760390992218229,0.001524,-0.000623,-0.001393,0.424403,-5.551393,-7.968908
1760390992219197,0.000715,0.000607,-0.000157,0.416320,-5.538555,-7.954716
1760390992220311,0.001935,-0.002270,-0.000539,0.403536,-5.545026,-7.962646
1760390992221240,0.000345,-0.002304,-0.003007,0.413084,-5.540244,-7.964176
1760390992222214,-0.000914,-0.003528,-0.000969,0.408252,-5.541874,-7.964182
1760390992223341,0.001563,-0.001062,-0.000964,0.416364,-5.533850,-7.978533
1760390992224307,-0.002984,0.000164,0.001045,0.403665,-5.548191,-7.975359
1760390992225273,-0.000526,-0.006021,-0.000557,0.417934,-5.554569,-7.970407
1760390992226239,-0.004636,0.000596,0.001019,0.402143,-5.548277,-7.983329
1760390992227196,0.001140,0.000996,-0.002616,0.418063,-5.546638,-7.983236
1760390992228328,-0.002146,-0.002288,-0.001383,0.419716,-5.554634,-7.980054
1760390992229297,0.000710,-0.001885,-0.001383,0.421260,-5.537023,-7.980113
1760390992230265,0.000708,0.000592,-0.002626,0.402058,-5.540255,-7.965939
1760390992231233,-0.000932,-0.002293,0.000683,0.411605,-5.552958,-7.962610
1760390992232206,-0.000139,-0.001877,0.000242,0.417937,-5.546621,-7.975221
1760390992233330,-0.000130,0.000587,-0.002637,0.421138,-5.560956,-7.962468
1760390992234253,0.000701,-0.000232,0.000658,0.424358,-5.549804,-7.978403
1760390992235226,-0.002549,0.000606,-0.001831,0.414774,-5.543396,-7.970551
1760390992236203,0.000319,-0.002704,-0.002607,0.413372,-5.548193,-7.975375
1760390992237331,0.000337,-0.004777,-0.002196,0.414920,-5.541886,-7.986477
1760390992238298,0.001538,-0.001027,-0.000147,0.406936,-5.545026,-7.984922
1760390992239255,-0.002555,0.000996,-0.002650,0.411535,-5.546534,-7.965765
1760390992240220,0.003969,-0.000650,-0.001358,0.414768,-5.548191,-7.968944
1760390992241224,0.001123,0.000598,0.000663,0.419573,-5.554665,-7.978336
1760390992242203,-0.001693,-0.001493,-0.004680,0.411625,-5.541881,-7.978512
1760390992243331,0.000280,0.001423,0.001882,0.405209,-5.541820,-7.964302
1760390992244297,-0.000531,0.001021,-0.001832,0.413214,-5.549747,-7.967348
1760390992245262,0.000269,-0.000224,0.000645,0.406701,-5.545033,-7.959478
1760390992246220,0.000314,0.003061,-0.004682,0.417798,-5.538629,-7.962541
1760390992247347,-0.000908,-0.000639,-0.002624,0.420998,-5.538589,-7.959353
1760390992248317,0.001939,-0.002707,0.000263,0.403558,-5.540213,-7.967459
1760390992249286,-0.000502,-0.001495,-0.001385,0.417976,-5.556239,-7.968876
1760390992250252,0.004001,-0.000646,-0.001369,0.435506,-5.567314,-7.962343
1760390992251219,0.001942,-0.001064,-0.000557,0.410056,-5.545004,-7.972149
1760390992252341,-0.000102,0.001840,-0.001814,0.419557,-5.543393,-7.968958
1760390992253298,-0.001732,0.001021,-0.001412,0.413281,-5.549819,-7.976954
1760390992254252,0.002774,-0.005597,-0.002168,0.402057,-5.552954,-7.968994
1760390992255226,-0.001736,-0.001458,-0.002220,0.411606,-5.549788,-7.970582
1760390992256192,-0.005852,0.003477,0.000585,0.422865,-5.556219,-7.981536
1760390992257320,-0.002967,-0.000221,-0.001406,0.425979,-5.552976,-7.979909
1760390992258287,0.000304,0.001411,-0.003449,0.406842,-5.543449,-7.969050
1760390992259246,0.000689,0.000604,0.000636,0.422853,-5.548167,-7.981644
1760390992260201,-0.001678,0.000157,-0.005513,0.421266,-5.551395,-7.978466
1760390992261335,-0.002555,-0.003549,0.001074,0.421127,-5.543388,-7.964191
1760390992262306,-0.000092,-0.004348,-0.001800,0.427580,-5.549793,-7.967336
1760390992263274,-0.000947,0.001422,-0.000176,0.413342,-5.559440,-7.986399
1760390992264241,-0.000476,0.000160,-0.003031,0.421027,-5.557714,-7.956087
1760390992265207,-0.002172,0.001017,0.001848,0.416417,-5.546655,-7.983171
1760390992266322,-0.002128,0.000963,-0.004688,0.413149,-5.551422,-7.973640
1760390992267265,-0.003414,0.001857,0.001847,0.408384,-5.546650,-7.973756
1760390992268244,0.000732,0.001412,-0.002218,0.405273,-5.551431,-7.976890
1760390992269214,-0.001722,0.000999,-0.000595,0.408315,-5.557719,-7.959346
1760390992270338,0.002749,0.001431,-0.000151,0.414667,-5.537027,-7.970490
1760390992271307,0.002354,0.000573,-0.006298,0.414793,-5.540288,-7.976910
1760390992272267,0.000290,-0.000663,-0.002623,0.421222,-5.538659,-7.981661
1760390992273223,-0.000482,-0.003534,-0.002202,0.408510,-5.541816,-7.978580
1760390992274343,-0.000111,-0.001078,-0.000575,0.421049,-5.533809,-7.965748
1760390992275326,0.002791,0.000166,-0.003014,0.414799,-5.540184,-7.975284
1760390992276298,-0.001307,-0.003527,-0.001395,0.401856,-5.554549,-7.949902
1760390992277270,-0.002129,0.000149,-0.003864,0.417902,-5.540205,-7.968917
1760390992278252,-0.000933,-0.001054,-0.000181,0.421111,-5.535369,-7.964175
1760390992279210,0.001545,-0.002715,-0.002592,0.419426,-5.543352,-7.959368
1760390992280324,0.001131,-0.002709,-0.001782,0.413088,-5.541767,-7.965757
1760390992281300,0.001159,-0.003112,-0.003012,0.405239,-5.551437,-7.973796
1760390992282281,0.000723,-0.001045,-0.000575,0.422790,-5.540259,-7.980039
1760390992283249,0.002333,-0.000225,-0.000968,0.405331,-5.559389,-7.968971
1760390992284216,-0.000519,0.002631,-0.002227,0.394259,-5.554648,-7.980232
1760390992285341,0.001552,-0.001886,-0.002196,0.422767,-5.556145,-7.970432
1760390992286301,0.003976,-0.003496,-0.000130,0.397276,-5.556220,-7.973763
1760390992287268,-0.000504,-0.002314,-0.001814,0.403748,-5.553009,-7.981733
1760390992288244,-0.000089,0.001817,-0.003444,0.408428,-5.546594,-7.972151
1760390992289223,0.000280,-0.000638,-0.001007,0.398865,-5.545055,-7.962781
1760390992290201,-0.000097,0.000581,0.000225,0.405219,-5.554592,-7.967374
1760390992291331,0.001532,0.002228,-0.002190,0.416377,-5.551416,-7.964180
1760390992292292,-0.004204,0.000182,-0.001419,0.437133,-5.551313,-7.967212
1760390992293247,0.000284,0.003081,0.001063,0.421198,-5.546558,-7.976830
1760390992294210,-0.000100,0.001004,-0.000563,0.427516,-5.552930,-7.967239
1760390992295341,-0.001306,0.002217,-0.004270,0.408298,-5.553018,-7.959386
1760390992296214,0.001154,-0.000241,-0.004245,0.411547,-5.553052,-7.962540
1760390992297345,0.001555,0.004699,-0.005904,0.409927,-5.545038,-7.967344
1760390992298313,-0.000547,-0.000252,-0.000984,0.401840,-5.554513,-7.948283
1760390992299270,0.001507,-0.000218,0.001072,0.408391,-5.544981,-7.959516
1760390992300226,0.001935,-0.000221,-0.000963,0.408456,-5.548210,-7.973773
1760390992301194,-0.000919,0.000191,0.000234,0.406773,-5.545001,-7.967378
1760390992302325,-0.000915,0.001007,-0.001008,0.395717,-5.554573,-7.975368
1760390992303315,-0.003360,0.002672,-0.001004,0.410052,-5.541854,-7.973841
1760390992304280,-0.005002,0.000161,-0.002254,0.411496,-5.544986,-7.954679
1760390992305247,0.001153,0.001829,-0.001792,0.406729,-5.554615,-7.960979
1760390992306206,0.002753,-0.001884,0.000284,0.400477,-5.551464,-7.975439
1760390992307325,0.001965,-0.000652,-0.002212,0.410052,-5.560972,-7.972097
1760390992308296,-0.001717,-0.002306,-0.004278,0.413110,-5.533838,-7.972192
1760390992309266,-0.000099,0.000583,-0.000979,0.408474,-5.543376,-7.970598
1760390992310242,-0.000477,0.001821,-0.002626,0.413240,-5.538605,-7.975326
1760390992311216,0.002775,-0.001048,-0.001774,0.405370,-5.549858,-7.986497
1760390992312339,-0.000105,0.000188,-0.000577,0.406817,-5.554609,-7.967372
1760390992313297,-0.000953,-0.002711,0.001888,0.417956,-5.551373,-7.973656
1760390992314253,0.001135,-0.001451,-0.000976,0.414825,-5.546589,-7.975324
1760390992315227,0.002352,-0.003946,0.000681,0.414768,-5.544965,-7.964205
1760390992316204,0.005172,-0.000656,0.000692,0.413230,-5.540197,-7.973774
1760390992317343,0.002331,-0.001447,-0.000557,0.405233,-5.548273,-7.973741
1760390992318310,0.001095,0.003463,-0.000981,0.413192,-5.548281,-7.973749
1760390992319269,0.000686,-0.004332,-0.000153,0.422605,-5.546565,-7.957702
1760390992320225,0.001554,-0.000222,-0.002204,0.417767,-5.546549,-7.946596
1760390992321206,-0.000519,-0.001464,0.000264,0.413187,-5.557762,-7.962550
1760390992322342,-0.000493,-0.001467,-0.000989,0.408414,-5.556179,-7.962619
1760390992323310,-0.002949,-0.001902,-0.003458,0.416356,-5.556255,-7.968870
1760390992324323,0.000715,0.003477,-0.002632,0.403768,-5.546663,-7.977047
1760390992325290,-0.001335,-0.005617,-0.001371,0.406883,-5.543468,-7.986506
1760390992326248,-0.001715,-0.002298,-0.002198,0.411715,-5.549850,-7.986447
1760390992327209,0.001103,-0.003948,0.002715,0.421186,-5.546556,-7.967304
1760390992328203,0.002366,-0.001459,-0.002188,0.418066,-5.546642,-7.976881
1760390992329332,-0.000926,-0.001050,0.000662,0.408462,-5.549815,-7.972179
1760390992330298,0.001552,0.000995,-0.001798,0.411561,-5.535415,-7.970586
1760390992331276,-0.000498,-0.001446,-0.000979,0.408500,-5.541852,-7.981761
1760390992332358,0.000321,-0.002316,-0.004252,0.405176,-5.549766,-7.968971
1760390992333317,0.003184,-0.003530,-0.001367,0.409978,-5.556216,-7.970468
1760390992334254,-0.002150,-0.003548,-0.000171,0.408381,-5.551347,-7.967388
1760390992335229,-0.000514,-0.002688,0.000255,0.413086,-5.541807,-7.957832
1760390992336195,-0.000474,-0.001900,-0.004233,0.405057,-5.548164,-7.949913
1760390992337324,0.003164,0.001847,0.000265,0.421268,-5.559349,-7.973614
1760390992338301,-0.000123,0.001418,-0.000978,0.419747,-5.551387,-7.984798
1760390992339260,-0.002140,0.000177,-0.001421,0.421300,-5.543404,-7.981692
1760390992340216,-0.000123,-0.002674,0.002295,0.411688,-5.549809,-7.975361
1760390992341212,-0.002981,-0.000240,0.001038,0.413076,-5.562495,-7.957682
1760390992342195,0.001118,-0.001893,-0.002211,0.406829,-5.549827,-7.965836
1760390992343324,0.002357,0.001007,-0.001796,0.405257,-5.545084,-7.980094
1760390992344289,0.002321,-0.002273,-0.001790,0.411481,-5.536985,-7.965805
1760390992345265,-0.001319,0.003469,-0.001829,0.413140,-5.529003,-7.967447
1760390992346224,0.001927,-0.002695,-0.002603,0.414723,-5.548135,-7.956269
1760390992347195,-0.002957,0.000579,-0.002233,0.419643,-5.556084,-7.967285
1760390992348327,-0.000918,-0.000259,-0.002634,0.405286,-5.540267,-7.973885
1760390992349297,-0.000509,0.000592,-0.002638,0.414718,-5.557743,-7.954558
1760390992350266,0.002392,-0.001481,-0.003827,0.416377,-5.552960,-7.962564
1760390992351233,0.003988,-0.000625,-0.001355,0.421189,-5.537000,-7.973749
1760390992352208,-0.000909,-0.001050,-0.001811,0.409873,-5.545015,-7.967325
1760390992353323,-0.001362,0.001439,0.001452,0.419529,-5.552967,-7.964157
1760390992354253,-0.002568,-0.001472,0.001469,0.416407,-5.557700,-7.964115
1760390992355227,0.001118,-0.000640,-0.002202,0.398717,-5.546625,-7.953133
1760390992356194,-0.001729,-0.002710,-0.001811,0.417903,-5.535351,-7.968974
1760390992357321,-0.001329,-0.002685,0.001483,0.416396,-5.549781,-7.973699
1760390992358289,-0.000117,0.000194,-0.000570,0.416370,-5.530602,-7.978529
1760390992359256,-0.002966,-0.000231,0.000216,0.424318,-5.544973,-7.970439
1760390992360212,-0.002148,-0.000661,-0.001397,0.413177,-5.543436,-7.976919
1760390992361339,0.001932,0.001019,0.000254,0.402190,-5.554624,-7.986492
1760390992362311,-0.000512,0.000587,-0.001815,0.421182,-5.556174,-7.967283
1760390992363279,0.002344,-0.001059,-0.000153,0.406788,-5.551378,-7.965824
1760390992364247,0.001108,0.001397,-0.000565,0.417959,-5.537003,-7.973751
1760390992365214,-0.001731,-0.004344,-0.000568,0.413138,-5.541825,-7.968987
1760390992366339,0.000719,-0.002692,-0.000980,0.422654,-5.546535,-7.962506
1760390992367265,0.000708,-0.000617,-0.000986,0.409975,-5.551438,-7.981571
1760390992368241,0.002759,-0.000215,-0.001390,0.413292,-5.543447,-7.980150
1760390992369211,0.000295,0.001020,-0.000166,0.416456,-5.551435,-7.984805
1760390992370335,0.003980,-0.001868,-0.000971,0.429123,-5.552937,-7.973549
1760390992371305,-0.000092,-0.000641,-0.001392,0.411589,-5.548152,-7.967381
1760390992372265,0.004375,-0.000620,-0.000531,0.406971,-5.554626,-7.976952
1760390992373230,-0.001346,-0.001047,-0.001002,0.416508,-5.567332,-7.965678
1760390992374355,0.002763,0.002256,-0.005089,0.418081,-5.559365,-7.965752
1760390992375325,-0.001315,0.000991,-0.002625,0.422655,-5.541776,-7.965681
1760390992376293,-0.001726,0.000972,-0.002626,0.419387,-5.540159,-7.960925
1760390992377328,0.000317,-0.001057,-0.000150,0.403515,-5.556117,-7.951469
1760390992378306,0.002748,-0.000228,-0.001367,0.403636,-5.543363,-7.964315
1760390992379269,-0.002939,-0.000242,-0.004281,0.435498,-5.533805,-7.976841
1760390992382683,0.002357,-0.002292,-0.001386,0.416233,-5.537048,-7.962583
1760390992382701,0.000305,-0.001069,0.000245,0.416324,-5.551353,-7.960930
1760390992382705,0.002749,-0.002691,0.000679,0.430750,-5.541849,-7.968917
1760390992383362,0.000728,0.001824,-0.001801,0.400421,-5.543413,-7.972245
1760390992384359,-0.000067,-0.003979,-0.003828,0.403657,-5.543454,-7.975370
1760390992385343,0.000288,-0.001051,-0.002202,0.417994,-5.533849,-7.972228
1760390992386331,0.001130,-0.000662,-0.002211,0.410027,-5.545038,-7.970592
1760390992387320,-0.000103,-0.002701,-0.000157,0.419562,-5.543365,-7.972129
1760390992388322,-0.000098,-0.000655,-0.001811,0.405265,-5.552986,-7.965871
1760390992389322,-0.000884,-0.005205,-0.004240,0.403610,-5.548166,-7.956357
1760390992390324,-0.003356,-0.001076,-0.003058,0.403650,-5.553021,-7.962701
1760390992391313,-0.004163,-0.001078,-0.001823,0.414916,-5.541876,-7.989624
1760390992392293,0.001922,-0.001873,0.001488,0.402073,-5.548238,-7.969041
1760390992393269,-0.005393,-0.004781,-0.002631,0.405374,-5.549829,-7.989660
1760390992394280,-0.002967,-0.003123,-0.001808,0.419748,-5.554620,-7.983219
1760390992395270,-0.000093,-0.001480,-0.002599,0.408467,-5.556180,-7.975271
1760390992396346,-0.001308,-0.001899,-0.003850,0.405274,-5.546643,-7.975371
1760390992397334,-0.000491,-0.001493,-0.003427,0.421119,-5.544958,-7.965736
1760390992398232,-0.000086,-0.002704,-0.001803,0.419560,-5.551391,-7.970466
1760390992399219,-0.000092,-0.002319,-0.003030,0.429091,-5.557737,-7.968742
1760390992400337,0.000699,0.001442,-0.000582,0.409980,-5.559288,-7.953071
1760390992401321,0.001910,-0.001858,0.000247,0.403486,-5.541814,-7.956313
1760390992402299,-0.000527,-0.000647,-0.000592,0.424230,-5.540170,-7.962532
1760390992403270,0.001956,-0.003534,-0.001378,0.417907,-5.549764,-7.960966
1760390992404241,0.004367,-0.001433,-0.000550,0.419589,-5.549790,-7.967359
1760390992405213,-0.001323,-0.001048,0.000237,0.403720,-5.546632,-7.978596
1760390992406334,-0.001718,0.002655,-0.003056,0.409906,-5.552952,-7.956222
1760390992407276,0.000736,0.000597,-0.001382,0.398787,-5.530675,-7.964410
1760390992408263,-0.001709,0.001411,-0.002636,0.424223,-5.538574,-7.949912
1760390992409241,-0.001738,0.000191,-0.001016,0.421065,-5.543428,-7.965717
1760390992410215,-0.001354,-0.000234,-0.000990,0.424213,-5.549804,-7.959268
1760390992411227,0.000719,0.000599,-0.002214,0.430749,-5.560932,-7.973552
1760390992412215,-0.000503,0.000179,-0.003027,0.413044,-5.544986,-7.956207
1760390992413336,0.001131,0.001009,-0.001397,0.405135,-5.546622,-7.967353
1760390992414305,-0.001710,-0.000235,-0.002222,0.424497,-5.548141,-7.975299
1760390992415298,0.001535,-0.000230,-0.002204,0.417967,-5.543485,-7.970556
1760390992416272,-0.002577,0.000601,-0.001432,0.424389,-5.556174,-7.967288
1760390992417243,-0.002535,0.000171,-0.003869,0.403527,-5.551377,-7.961040
1760390992418216,0.001517,-0.001459,0.000686,0.408435,-5.551411,-7.972167
1760390992419356,0.001939,-0.000631,-0.000145,0.427573,-5.557784,-7.975133
1760390992420249,0.006442,-0.002267,-0.001344,0.410025,-5.557767,-7.967314
1760390992421323,-0.001336,0.000590,-0.003460,0.406871,-5.553022,-7.981651
1760390992422322,-0.000471,0.001401,-0.004684,0.405249,-5.554564,-7.970580
1760390992423249,-0.001316,0.000598,-0.000584,0.410006,-5.567381,-7.964137
1760390992424273,0.001561,0.002245,-0.001400,0.410031,-5.554558,-7.964187
1760390992425266,0.003986,0.000583,0.000278,0.421079,-5.546573,-7.956193
1760390992426240,0.000273,-0.001030,0.000654,0.410012,-5.524302,-7.980241
1760390992427267,0.003184,-0.003929,-0.001375,0.413137,-5.538607,-7.967406
1760390992428288,0.002353,-0.000223,-0.000566,0.414781,-5.540244,-7.973750
1760390992429301,0.001087,0.000998,0.000234,0.411590,-5.546638,-7.972144
1760390992430289,-0.000920,-0.000650,-0.001399,0.403570,-5.544984,-7.967455
1760390992431271,-0.002963,-0.000230,-0.001420,0.414602,-5.533783,-7.957847
1760390992432256,-0.000533,-0.001888,-0.000169,0.405175,-5.545007,-7.972169
1760390992433220,-0.000105,-0.003535,-0.003422,0.414765,-5.541748,-7.968988
1760390992434342,0.005614,-0.002685,-0.002165,0.408508,-5.554648,-7.975373
1760390992435318,0.000318,0.001399,-0.004262,0.409994,-5.548195,-7.962602
1760390992436305,0.003955,0.000220,0.000681,0.406760,-5.541793,-7.968991
1760390992437278,-0.002140,-0.001060,-0.000997,0.410018,-5.540155,-7.964278
1760390992438280,-0.001320,-0.003130,-0.003846,0.421128,-5.536956,-7.970544
1760390992439238,0.001121,-0.001043,-0.000581,0.416232,-5.530553,-7.959491
1760390992440193,0.003143,-0.000644,0.000260,0.414780,-5.535447,-7.975376
1760390992441230,0.003969,-0.001458,-0.000945,0.409875,-5.524284,-7.962725
1760390992442201,-0.003353,-0.004762,-0.001385,0.400472,-5.533909,-7.978670
1760390992443339,0.001163,0.002650,-0.004259,0.410032,-5.554626,-7.972138
1760390992444807,0.001530,0.001024,-0.000967,0.410076,-5.549830,-7.970623
1760390992445313,0.003537,0.003908,0.001902,0.424512,-5.562633,-7.981552
1760390992446275,-0.002967,-0.001481,-0.000166,0.416453,-5.543448,-7.984820
1760390992447239,-0.003773,-0.001908,-0.001816,0.411648,-5.557720,-7.961031
1760390992448211,-0.004183,-0.000641,0.000627,0.416306,-5.546533,-7.954646
1760390992449355,0.002343,-0.001476,0.000266,0.432329,-5.551370,-7.973560
1760390992450214,-0.000497,0.000166,-0.002611,0.422718,-5.538591,-7.972106
1760390992451218,-0.001733,-0.003102,-0.000136,0.408422,-5.549829,-7.973754
1760390992452347,0.002770,0.000583,-0.002600,0.413317,-5.553030,-7.987964
1760390992453313,0.000292,-0.002292,-0.000972,0.411615,-5.545024,-7.967402
1760390992454258,0.003141,-0.001059,-0.001378,0.411680,-5.559332,-7.968981
1760390992457064,0.001077,0.000612,0.000252,0.411550,-5.544912,-7.959436
1760390992457072,-0.000921,-0.001880,-0.001794,0.408437,-5.543338,-7.975376
1760390992457246,0.003994,-0.001874,-0.002584,0.408427,-5.548241,-7.970558
1760390992458216,0.000293,-0.002709,0.000251,0.394079,-5.553085,-7.980087
1760390992459335,-0.002524,-0.002323,-0.003852,0.405171,-5.535414,-7.973834
1760390992460291,-0.001300,-0.000673,-0.002627,0.413121,-5.552921,-7.954642
1760390992461245,0.001543,0.002232,-0.003450,0.417988,-5.552938,-7.965738
1760390992462221,-0.004618,0.002644,-0.002260,0.411506,-5.551376,-7.964096
1760390992463220,-0.000940,-0.000212,0.000238,0.405215,-5.538636,-7.973845
1760390992464217,0.000314,0.002228,-0.002220,0.405333,-5.560964,-7.976927
1760390992465344,0.001532,0.000573,-0.001794,0.416355,-5.557724,-7.968832
1760390992466304,0.001514,-0.001039,-0.000992,0.401841,-5.545038,-7.964177
1760390992467269,-0.004591,-0.001481,-0.001409,0.417860,-5.549788,-7.957790
1760390992468245,-0.000931,0.003076,0.000638,0.411489,-5.533821,-7.961082
1760390992469217,-0.002119,-0.003542,-0.003444,0.419651,-5.549860,-7.983202
1760390992470343,0.004397,0.003452,-0.005063,0.430792,-5.552982,-7.976787
1760390992471325,0.002389,-0.000249,-0.004242,0.403555,-5.549774,-7.956350
1760390992472364,0.001135,0.000592,-0.002209,0.419594,-5.560936,-7.970411
1760390992473607,0.001136,-0.003543,-0.001773,0.416280,-5.549840,-7.973559
1760390992474378,0.001144,0.000177,-0.001790,0.398732,-5.541832,-7.961097
1760390992475326,-0.002500,-0.001500,-0.004280,0.417889,-5.543390,-7.962553
1760390992476246,-0.001726,0.000989,-0.003037,0.413088,-5.548204,-7.961005
1760390992477275,0.001496,0.001015,-0.000152,0.406842,-5.545005,-7.965912
1760390992478287,0.000692,-0.004329,0.002314,0.417930,-5.541787,-7.972103
1760390992479281,0.003964,0.000201,-0.000971,0.403596,-5.541826,-7.957946
1760390992480265,0.001548,0.001021,-0.001383,0.411580,-5.549823,-7.964179
1760390992481258,0.001948,-0.001480,-0.001376,0.416358,-5.552969,-7.964111
1760390992482244,0.000710,-0.001041,-0.000561,0.419623,-5.541843,-7.976912
1760390992483232,-0.000134,0.000621,-0.000601,0.408377,-5.546597,-7.970560
1760390992484207,0.003545,-0.000627,0.000691,0.410027,-5.541796,-7.964274
1760390992485196,-0.002950,-0.002304,-0.002211,0.411691,-5.548193,-7.976954
1760390992486314,0.001128,-0.003119,-0.000993,0.427581,-5.532220,-7.972155
1760390992487267,0.000294,0.000186,-0.001394,0.414848,-5.538631,-7.975380
1760390992488240,0.000693,0.000194,-0.001407,0.416267,-5.540213,-7.962592
1760390992489210,-0.001747,-0.001071,-0.002226,0.419633,-5.557755,-7.968851
1760390992490334,-0.004211,-0.001037,-0.000599,0.427461,-5.548088,-7.957714
1760390992491311,0.000310,-0.000629,-0.002620,0.419615,-5.548248,-7.978419
1760390992492283,0.001541,-0.001067,-0.003028,0.417984,-5.538642,-7.976870
1760390992493238,-0.004595,0.000576,-0.003078,0.424308,-5.551408,-7.971976
1760390992494214,-0.002131,-0.001879,-0.001809,0.413090,-5.543468,-7.967332
1760390992495190,0.003169,-0.000632,-0.001387,0.411681,-5.560945,-7.970499
1760390992496226,-0.001740,-0.001887,-0.000998,0.403700,-5.545040,-7.976977
1760390992497336,0.003563,-0.002697,-0.000544,0.400568,-5.557857,-7.973812
1760390992498320,0.000302,-0.003107,-0.002616,0.405153,-5.556167,-7.959427
1760390992499325,0.000701,0.000598,-0.001386,0.430687,-5.554618,-7.964046
1760390992500293,0.001153,0.000577,-0.002619,0.395648,-5.549902,-7.970663
1760390992501258,-0.000496,0.000994,-0.004281,0.419680,-5.541833,-7.980113
1760390992502241,0.000718,-0.001476,-0.000552,0.419510,-5.530621,-7.965846
1760390992503215,-0.002136,0.003875,0.000224,0.406887,-5.533833,-7.972272
1760390992504341,-0.002168,-0.003129,0.001065,0.427516,-5.532227,-7.975259
1760390992505330,-0.004185,-0.002718,-0.001000,0.413095,-5.543390,-7.960992
1760390992507644,-0.002558,-0.003110,0.000239,0.413173,-5.548127,-7.962603
1760390992507648,0.000728,-0.002297,-0.003424,0.409940,-5.544988,-7.959455
1760390992508302,-0.000516,0.000586,-0.002205,0.419508,-5.533790,-7.962638
1760390992509277,-0.000932,-0.002692,-0.000575,0.395741,-5.548297,-7.980199
1760390992510247,-0.004990,-0.002320,-0.002643,0.417997,-5.538595,-7.975324
1760390992511216,0.002354,0.000159,-0.003819,0.414757,-5.541811,-7.965781
1760390992512340,0.005209,-0.001455,0.001093,0.408321,-5.552988,-7.961000
1760390992513309,0.000678,-0.003529,0.000255,0.418066,-5.543439,-7.983281
1760390992514256,0.003146,-0.001865,0.000661,0.429227,-5.549768,-7.972075
1760390992515246,0.003997,-0.001877,-0.000532,0.414802,-5.546627,-7.968923
1760390992516217,0.002786,-0.003553,-0.003020,0.422794,-5.551368,-7.967335
1760390992517205,0.003124,0.002254,0.001076,0.419556,-5.552972,-7.972091
1760390992518336,0.001467,0.000631,0.003114,0.421196,-5.541794,-7.970552
1760390992519303,-0.000941,-0.001886,0.001480,0.429030,-5.554523,-7.960834
1760390992520270,-0.000911,-0.000628,-0.000990,0.427485,-5.557745,-7.965595
1760390992521246,-0.000093,0.002636,-0.005497,0.411688,-5.543414,-7.988058
1760390992522222,-0.000508,-0.005987,0.000673,0.408427,-5.548196,-7.975307
1760390992523374,-0.003371,-0.000680,-0.002630,0.419466,-5.546551,-7.957759
1760390992524324,-0.001742,0.001417,-0.002217,0.414764,-5.557771,-7.962534
1760390992525367,0.004776,0.001410,-0.000546,0.403547,-5.540269,-7.967441
1760390992526272,-0.003346,-0.001075,-0.002639,0.421116,-5.552970,-7.965648
1760390992527397,-0.001302,0.001415,-0.003044,0.410048,-5.560964,-7.968895
1760390992528306,0.001938,-0.000666,-0.000964,0.416321,-5.544993,-7.967332
1760390992529302,0.001558,0.000580,-0.003834,0.414733,-5.557776,-7.965653
1760390992530302,-0.002161,-0.001469,0.000629,0.406682,-5.551426,-7.957837
1760390992531302,0.000715,0.000616,-0.000170,0.414793,-5.549782,-7.964170
1760390992532312,0.001556,-0.001069,-0.002607,0.405272,-5.548234,-7.965880
1760390992533383,0.003567,0.001011,-0.000138,0.413131,-5.546587,-7.965785
1760390992534379,0.001097,0.000602,0.000656,0.411526,-5.538590,-7.956338
1760390992535291,0.000736,-0.003933,-0.001380,0.411603,-5.556172,-7.965777
1760390992536261,0.003987,-0.002287,-0.000538,0.424421,-5.569012,-7.975130
1760390992537229,0.002378,-0.003128,-0.002186,0.405310,-5.561058,-7.970585
1760390992538210,0.000311,0.002239,-0.001402,0.411706,-5.562548,-7.968936
1760390992539329,0.004397,-0.003522,-0.001349,0.419549,-5.549791,-7.968886
1760390992540285,0.001953,-0.002686,0.000256,0.411564,-5.543380,-7.964198
1760390992541224,0.001921,-0.001453,0.000678,0.411599,-5.541826,-7.970592
1760390992542223,-0.000958,-0.002695,-0.000555,0.416498,-5.545070,-7.986442
1760390992543269,-0.002989,0.007190,-0.001844,0.411573,-5.543403,-7.967390
1760390992544245,-0.002974,-0.004769,-0.000179,0.398833,-5.545049,-7.969060
1760390992545214,-0.000916,-0.000254,-0.003037,0.408341,-5.540241,-7.969003
1760390992546332,0.002771,-0.001048,-0.000132,0.408370,-5.543449,-7.973747
1760390992547267,0.003202,-0.001479,-0.002994,0.398852,-5.541814,-7.970664
1760390992548247,0.002337,-0.002712,-0.000550,0.410069,-5.541846,-7.967527
1760390992549266,-0.002156,-0.000642,-0.000594,0.430573,-5.538586,-7.964046
1760390992550741,-0.003004,-0.000637,0.001053,0.416323,-5.538564,-7.962617
1760390992551252,0.001528,-0.002703,-0.000564,0.414856,-5.553004,-7.968920
1760390992552388,-0.000941,0.001008,-0.000591,0.410042,-5.549863,-7.976956
1760390992553221,0.003181,-0.004761,0.000284,0.416351,-5.543396,-7.972097
1760390992554346,0.001112,-0.003128,0.000679,0.408293,-5.527406,-7.957966
1760390992557073,-0.000922,-0.000237,-0.002610,0.400430,-5.545084,-7.976999
1760390992557083,-0.001723,-0.001894,-0.000578,0.413138,-5.546633,-7.964232
1760390992557251,-0.002529,-0.001911,-0.003443,0.405228,-5.549805,-7.967393
1760390992558221,-0.000512,-0.000637,-0.001389,0.414749,-5.549719,-7.960981
1760390992559342,0.002741,0.003488,-0.001790,0.408398,-5.544977,-7.972156
1760390992560299,-0.003797,0.000564,-0.000606,0.417927,-5.560934,-7.957713
1760390992561246,0.000693,-0.001903,-0.001377,0.411576,-5.538598,-7.967424
1760390992562230,0.002325,-0.001033,0.002314,0.406859,-5.537027,-7.972297
1760390992563199,0.001120,-0.003937,-0.000556,0.414793,-5.544975,-7.972137
1760390992564326,-0.000922,-0.000627,-0.000565,0.409999,-5.544994,-7.956336
1760390992565294,0.002769,-0.001069,-0.003411,0.418045,-5.559426,-7.972038
1760390992566255,0.001518,0.000188,-0.000163,0.417978,-5.562516,-7.962462
1760390992567215,0.001944,-0.001864,-0.000962,0.400522,-5.561011,-7.973720
1760390992568218,0.002330,-0.000206,-0.000154,0.395646,-5.556253,-7.970634
1760390992569323,-0.002548,-0.003096,-0.000990,0.408534,-5.543449,-7.983324
1760390992570294,0.003183,0.000180,-0.004244,0.421177,-5.551357,-7.967313
1760390992571304,-0.000912,0.001830,-0.001803,0.416421,-5.559328,-7.964113
1760390992572269,0.000334,-0.000659,-0.002618,0.402034,-5.549850,-7.970603
1760390992573257,0.000324,-0.004784,-0.004659,0.408406,-5.549777,-7.975314
1760390992574350,0.002353,-0.001474,-0.001364,0.405218,-5.552939,-7.954692
1760390992575251,-0.000133,0.000596,0.001897,0.410079,-5.544986,-7.972185
1760390992576335,-0.002553,-0.001471,-0.002634,0.414788,-5.530617,-7.969056
1760390992577338,-0.001312,-0.002738,-0.002198,0.401973,-5.551424,-7.961078
1760390992578371,-0.002913,-0.001496,-0.004274,0.414610,-5.546569,-7.951473
1760390992579360,0.003984,-0.004349,-0.002591,0.419427,-5.552956,-7.949802
1760390992580357,-0.000927,0.002224,-0.002644,0.416236,-5.543361,-7.954645
1760390992581215,-0.000106,-0.002283,-0.000971,0.421105,-5.533766,-7.970521
1760390992582194,0.003600,0.000582,-0.001794,0.419527,-5.538559,-7.970537
1760390992583334,-0.005791,-0.000248,-0.003041,0.413231,-5.548202,-7.976875
1760390992584300,-0.000894,0.002637,-0.003864,0.408494,-5.549815,-7.975366
1760390992585281,-0.002100,-0.000670,-0.003877,0.406901,-5.546645,-7.984875
1760390992586240,-0.001731,-0.001888,-0.001799,0.413206,-5.548199,-7.976891
1760390992587219,-0.000896,-0.000224,-0.002228,0.417973,-5.546607,-7.972110
1760390992588259,0.005229,0.000591,-0.003414,0.410071,-5.551397,-7.973751
1760390992589246,0.002786,-0.001063,-0.003836,0.413152,-5.540184,-7.967385
1760390992590239,-0.004589,-0.002746,-0.001406,0.414691,-5.552995,-7.965697
1760390992591258,-0.000491,0.000589,-0.002216,0.405261,-5.546657,-7.972231
1760390992592236,-0.000069,0.000167,-0.004265,0.411552,-5.552940,-7.957833
1760390992593204,-0.004566,-0.002302,-0.003051,0.413363,-5.541878,-7.988100
1760390992594329,0.002767,-0.000227,-0.002614,0.400451,-5.559422,-7.973685
1760390992595322,0.004356,-0.002685,0.001931,0.405346,-5.557788,-7.973741
1760390992596255,0.002789,-0.001049,-0.002186,0.402062,-5.554611,-7.965869
1760390992597234,-0.005008,-0.001056,-0.001428,0.410094,-5.546631,-7.988066
1760390992598203,0.003132,0.001857,0.002313,0.422697,-5.553020,-7.971966
1760390992599330,0.000692,-0.000656,-0.000977,0.422801,-5.553013,-7.972077
1760390992600302,0.004809,0.002227,-0.003008,0.416274,-5.557762,-7.957702
1760390992601254,-0.000518,0.001826,-0.000167,0.414711,-5.545012,-7.964215
1760390992602244,-0.002938,0.000169,-0.003877,0.422684,-5.545016,-7.960992
1760390992603217,0.000689,0.000600,0.000650,0.403584,-5.546546,-7.962671
1760390992604297,0.002341,0.000196,-0.002201,0.408309,-5.548178,-7.964183
1760390992605337,0.002765,-0.000227,-0.000956,0.425900,-5.551311,-7.957698
1760390992610417,0.002327,-0.001453,0.000279,0.405161,-5.551393,-7.964149
1760390992610433,-0.002172,-0.000238,-0.001015,0.418049,-5.546584,-7.973739
1760390992610437,0.001947,-0.003546,-0.002177,0.413289,-5.556217,-7.986409
1760390992610441,-0.000121,0.001840,-0.000978,0.403713,-5.553056,-7.976955
1760390992610444,0.001498,-0.002284,0.001499,0.413233,-5.551415,-7.968967
1760390992611262,-0.003364,0.002238,-0.001009,0.417916,-5.551393,-7.962564
1760390992612237,0.000278,-0.003908,0.003117,0.419558,-5.544991,-7.961005
1760390992613198,-0.002543,-0.003554,-0.003442,0.419483,-5.541722,-7.956230
1760390992614322,0.000734,-0.003112,-0.002191,0.418005,-5.548215,-7.975273
1760390992615295,-0.001742,-0.001894,0.001477,0.411746,-5.541795,-7.983325
1760390992616264,-0.000465,0.001808,-0.005075,0.411575,-5.556132,-7.967329
1760390992617234,-0.000916,-0.001066,-0.002622,0.422686,-5.533800,-7.962577
1760390992618570,0.000729,-0.001069,-0.001794,0.421131,-5.546594,-7.965733
1760390992619226,-0.000467,-0.000659,-0.005900,0.421172,-5.540207,-7.976878
1760390992620345,0.002358,-0.003520,-0.001771,0.414692,-5.535367,-7.957891
1760390992621316,-0.000095,-0.004344,0.000674,0.405273,-5.543432,-7.976968
1760390992622336,0.001953,0.001417,-0.000577,0.408306,-5.525830,-7.965888
1760390992623315,-0.000915,0.000975,-0.002640,0.422769,-5.532211,-7.976926
1760390992624345,0.003574,-0.001046,-0.000148,0.413142,-5.538677,-7.967397
1760390992625280,0.001549,-0.002283,-0.001372,0.419501,-5.529036,-7.965826
1760390992626321,-0.000088,-0.000668,-0.003017,0.425944,-5.543317,-7.973660
1760390992627371,0.001506,-0.001064,-0.001382,0.414725,-5.537012,-7.967393
1760390992628279,0.000335,-0.003546,-0.002611,0.414834,-5.548187,-7.965828
1760390992629324,-0.001704,-0.006017,-0.003421,0.398798,-5.546623,-7.961131
1760390992630309,-0.005838,0.000585,-0.000207,0.411510,-5.545000,-7.965826
1760390992631302,0.002342,0.003104,0.000240,0.410014,-5.544973,-7.965838
1760390992632345,0.003584,-0.002699,-0.000958,0.411575,-5.548203,-7.975266
1760390992633322,-0.000076,0.000587,-0.004686,0.427557,-5.546587,-7.970486
1760390992634270,-0.002510,-0.003535,-0.004267,0.425818,-5.549768,-7.962467
1760390992635250,-0.001298,0.000163,-0.003435,0.414909,-5.568986,-7.978392
1760390992636223,-0.000459,0.000550,-0.005090,0.416240,-5.541776,-7.960962
1760390992637203,-0.001335,0.002651,-0.001007,0.424411,-5.570544,-7.964029
1760390992638337,-0.001300,-0.001477,-0.003029,0.410069,-5.567388,-7.983108
1760390992639311,-0.000500,-0.001059,-0.000987,0.414826,-5.548164,-7.972158
1760390992640270,0.001959,0.000586,-0.006306,0.410101,-5.557795,-7.978497
1760390992641320,0.000706,-0.001049,0.000661,0.398680,-5.549788,-7.948383
1760390992642314,-0.002533,-0.001450,-0.001819,0.413148,-5.543436,-7.972099
1760390992643295,-0.002137,0.003877,-0.002658,0.422848,-5.551361,-7.972110
1760390992644268,0.000305,0.000177,0.000259,0.416418,-5.541807,-7.969012
1760390992645241,-0.000095,-0.003130,-0.001800,0.429045,-5.549756,-7.956166
1760390992646214,-0.003001,-0.000611,0.003089,0.416385,-5.549766,-7.975239
1760390992647337,-0.000082,0.001002,-0.003447,0.419612,-5.551332,-7.970509
1760390992648315,-0.000511,-0.000241,-0.001387,0.413153,-5.556201,-7.960984
1760390992649297,0.000723,-0.000652,-0.002210,0.417878,-5.560958,-7.964032
1760390992650284,-0.002950,-0.001071,-0.001404,0.408392,-5.562550,-7.968860
1760390992651255,-0.004227,0.000592,0.002254,0.414851,-5.551399,-7.973751
1760390992652323,0.001106,-0.000220,-0.001795,0.414802,-5.551389,-7.970495
1760390992653325,-0.002139,0.001415,-0.002228,0.410025,-5.554594,-7.961058
1760390992654305,-0.001314,0.003058,-0.002229,0.403612,-5.552980,-7.965810
1760390992655302,-0.002593,0.003056,-0.000608,0.400518,-5.572165,-7.972085
1760390992656285,-0.000085,-0.000241,-0.002613,0.421084,-5.548186,-7.957789
1760390992657261,-0.005462,-0.001074,0.001435,0.405219,-5.551453,-7.967401
1760390992658234,-0.000921,0.000171,-0.000578,0.413105,-5.537018,-7.961071
1760390992659356,-0.001342,-0.001066,-0.000581,0.417892,-5.546589,-7.968858
1760390992660294,-0.000501,-0.002736,-0.003847,0.427431,-5.530532,-7.960954
1760390992661247,0.002768,-0.000632,-0.002199,0.413146,-5.559363,-7.960981
1760390992662223,-0.001711,0.000995,-0.002218,0.406781,-5.543362,-7.953157
1760390992663204,0.003184,-0.003112,-0.003007,0.414723,-5.541841,-7.968933
1760390992664331,-0.000141,0.000628,0.001483,0.425831,-5.541797,-7.959346
1760390992665300,-0.002567,-0.001060,-0.001006,0.417986,-5.549762,-7.970529
1760390992666258,0.002736,-0.001887,-0.000130,0.432537,-5.559391,-7.987845
1760390992667226,0.000353,-0.003133,-0.005470,0.397348,-5.548244,-7.978602
1760390992670365,-0.003375,-0.003525,0.000661,0.399003,-5.551452,-7.975464
1760390992670375,-0.003328,-0.001493,-0.003453,0.440249,-5.549794,-7.973504
1760390992670379,0.001523,-0.005184,-0.001371,0.413143,-5.540240,-7.973745
1760390992671350,-0.003776,-0.002726,-0.002205,0.422800,-5.564190,-7.975124
1760390992672315,-0.002148,-0.005602,-0.002197,0.406760,-5.546640,-7.973730
1760390992673308,-0.001298,0.000573,-0.003044,0.408428,-5.551412,-7.978480
1760390992674265,-0.003761,-0.002310,-0.002638,0.400392,-5.548131,-7.962699
1760390992675269,0.003153,0.003077,-0.001795,0.418027,-5.548218,-7.975287
1760390992676384,-0.000913,-0.003534,-0.000146,0.406765,-5.533890,-7.969069
1760390992677320,0.000731,-0.006842,-0.001346,0.414757,-5.552944,-7.954642
1760390992678330,-0.003372,-0.002714,-0.001823,0.411514,-5.559341,-7.959335
1760390992679314,0.000696,-0.001873,0.002309,0.401901,-5.535394,-7.961114
1760390992680318,0.004393,-0.002289,-0.001359,0.421154,-5.551392,-7.973655
1760390992681331,0.000722,-0.003539,-0.002212,0.416477,-5.561032,-7.978443
1760390992682308,0.005596,-0.001450,0.000274,0.419607,-5.552942,-7.965754
1760390992683277,0.000714,0.002236,-0.001807,0.416340,-5.548158,-7.959441
1760390992684245,-0.001341,0.000201,-0.001000,0.416425,-5.553004,-7.975240
1760390992685213,0.003988,-0.002287,-0.003003,0.408505,-5.549789,-7.970569
1760390992686330,0.001112,-0.002297,-0.003029,0.387738,-5.559372,-7.965905
1760390992687266,-0.000069,-0.000232,-0.003046,0.405315,-5.549840,-7.986467
1760390992688247,-0.001729,0.001004,-0.001808,0.398896,-5.561010,-7.972187
1760390992689217,0.000320,-0.001065,-0.002207,0.416343,-5.538553,-7.959468
1760390992690341,0.001942,-0.001032,-0.000973,0.417770,-5.541746,-7.951418
1760390992691309,0.001938,0.002239,-0.003038,0.416266,-5.543294,-7.946726
1760390992692273,-0.002980,0.001418,0.000212,0.414780,-5.548125,-7.961037
1760390992693251,-0.000078,0.000171,-0.003047,0.416374,-5.554538,-7.975229
1760390992694227,-0.000891,-0.003537,-0.001390,0.421112,-5.548112,-7.964118
1760390992695213,0.003988,-0.001474,-0.003016,0.419656,-5.535475,-7.983354
1760390992696254,-0.000940,0.000597,-0.001003,0.400421,-5.548290,-7.981693
1760390992697222,-0.000522,-0.001071,-0.002212,0.405238,-5.545005,-7.972238
1760390992698204,-0.001725,0.000157,-0.002626,0.414743,-5.548123,-7.964171
1760390992699329,-0.000911,0.002219,-0.003046,0.411560,-5.546622,-7.964198
1760390992700304,-0.003779,0.001396,-0.003051,0.419490,-5.544982,-7.957797
1760390992701256,-0.001323,-0.002308,-0.001799,0.414878,-5.545034,-7.967418
1760390992702357,-0.001368,-0.000624,0.001871,0.430781,-5.552947,-7.978334
1760390992703341,-0.002135,-0.000234,-0.003452,0.403558,-5.556187,-7.964161
1760390992704336,-0.001737,-0.002300,-0.000563,0.405099,-5.544969,-7.954713
1760390992705299,-0.003366,-0.002708,0.000240,0.424357,-5.551404,-7.972051
1760390992706275,0.001102,-0.001049,0.000669,0.411638,-5.553045,-7.972127
1760390992707237,-0.001744,0.002255,-0.001416,0.408564,-5.556264,-7.984861
1760390992708210,0.000312,-0.001909,-0.000972,0.403710,-5.546705,-7.973821
1760390992709195,0.001125,-0.002306,-0.002197,0.411608,-5.541814,-7.970592
1760390992710319,0.003579,-0.001043,-0.000952,0.416318,-5.560914,-7.962476
1760390992711302,0.001124,0.001438,0.000242,0.424419,-5.554538,-7.970455
1760390992712273,0.003995,0.001011,-0.003429,0.419483,-5.548172,-7.962564
1760390992713237,-0.002525,-0.003568,-0.003448,0.403523,-5.552940,-7.953098
1760390992714220,0.002737,0.000205,-0.000140,0.410056,-5.538620,-7.972233
1760390992715475,-0.001766,0.000602,-0.000599,0.406863,-5.538692,-7.975383
1760390992716290,-0.000517,-0.001070,-0.003032,0.416360,-5.560995,-7.973555
1760390992717259,-0.002565,-0.001453,-0.000181,0.422692,-5.557818,-7.962481
1760390992718275,-0.000115,-0.000227,0.002302,0.425852,-5.549768,-7.962436
1760390992719234,-0.000122,-0.000233,-0.002638,0.406803,-5.554636,-7.962592
1760390992720200,0.001124,-0.001888,-0.001400,0.408412,-5.554604,-7.976839
1760390992721328,0.001105,0.001011,0.000647,0.409982,-5.554545,-7.967347
1760390992722303,-0.000897,-0.002736,-0.001398,0.429184,-5.548154,-7.970471
1760390992723323,-0.000498,-0.000652,-0.002633,0.414928,-5.556214,-7.972149
1760390992724265,0.003136,0.000191,-0.000154,0.411759,-5.557825,-7.972166
1760390992725298,-0.003389,0.000602,-0.000603,0.410048,-5.537016,-7.976985
1760390992726378,0.003605,-0.003543,-0.003394,0.411709,-5.548148,-7.983279
1760390992727260,-0.000538,-0.001061,0.000240,0.419566,-5.549796,-7.962585
1760390992728287,0.001950,0.001007,-0.003021,0.417998,-5.546562,-7.970516
1760390992729284,-0.001356,-0.000642,0.002302,0.408408,-5.553004,-7.967386
1760390992730291,0.003567,-0.003936,0.000718,0.419516,-5.541754,-7.965743
1760390992731364,-0.003783,-0.002299,-0.001001,0.413182,-5.552955,-7.967380
1760390992732364,-0.000078,-0.003539,-0.003012,0.409952,-5.544997,-7.964203
1760390992733336,0.001542,0.001417,-0.001790,0.409897,-5.548166,-7.956254
1760390992734308,0.000328,-0.003139,-0.002200,0.419450,-5.549759,-7.957729
1760390992735282,-0.001334,-0.002721,-0.001811,0.414859,-5.544975,-7.967451
1760390992736258,0.000335,0.000575,-0.002612,0.411630,-5.557715,-7.957839
1760390992737260,0.000264,-0.001036,0.000246,0.413245,-5.532196,-7.973813
1760390992738231,0.001107,0.001024,-0.000166,0.409939,-5.543365,-7.972163
1760390992739349,0.000285,-0.003520,0.000245,0.413038,-5.541697,-7.949924
1760390992740304,-0.000492,0.003057,-0.003445,0.411726,-5.546676,-7.976963
1760390992741314,-0.000498,-0.001870,-0.000168,0.416316,-5.541843,-7.965745
1760390992742285,-0.000506,-0.000247,-0.003869,0.422698,-5.537010,-7.973633
1760390992743254,0.001129,-0.002312,-0.001779,0.416306,-5.524185,-7.962707
1760390992744232,0.000311,-0.004375,-0.003003,0.400408,-5.538568,-7.969045
1760390992745198,-0.000945,0.001015,0.000635,0.395627,-5.549828,-7.961146
1760390992746315,0.002377,0.001427,-0.003837,0.421093,-5.541725,-7.960981
1760390992747269,0.000764,0.000164,-0.004652,0.408295,-5.546581,-7.953107
1760390992748250,-0.002150,-0.000239,-0.000573,0.427403,-5.552901,-7.952917
1760390992749269,-0.004599,-0.001489,-0.001425,0.429043,-5.543359,-7.960875
1760390992750266,-0.000115,-0.003535,-0.000146,0.421117,-5.556137,-7.965643
1760390992751249,0.001096,0.000172,-0.000984,0.419477,-5.549753,-7.962512
1760390992752346,-0.000514,-0.001057,-0.000144,0.424351,-5.545003,-7.970493
1760390992753322,0.002750,-0.000229,-0.001371,0.413090,-5.540220,-7.965803
1760390992754260,-0.003379,0.000993,-0.001004,0.406824,-5.545003,-7.965892
1760390992755238,-0.000093,-0.002308,-0.002212,0.411616,-5.549825,-7.981627
1760390992757069,0.001936,-0.003107,0.001892,0.413236,-5.552982,-7.967400
1760390992757240,-0.002960,-0.000662,-0.001412,0.421154,-5.548202,-7.964141
1760390992758220,0.003166,0.001418,-0.001378,0.406748,-5.554602,-7.973651
1760390992759340,-0.000526,0.000597,0.000234,0.414707,-5.560996,-7.967214
1760390992760295,0.002347,-0.001466,-0.001363,0.414813,-5.556188,-7.973675
1760390992761244,-0.001336,0.002654,-0.003887,0.410046,-5.552998,-7.970561
1760390992762218,0.000339,-0.004770,-0.004240,0.405298,-5.546667,-7.978549
1760390992763346,0.003576,-0.001436,0.000674,0.414766,-5.546654,-7.970559
1760390992764314,0.001098,0.001021,-0.000568,0.417940,-5.543418,-7.967335
1760390992765295,-0.004208,-0.000637,0.000222,0.416324,-5.545013,-7.970490
1760390992766259,-0.001749,-0.005994,-0.000984,0.403557,-5.546640,-7.965816
1760390992767221,0.002359,0.002244,-0.002206,0.408498,-5.556169,-7.975280
1760390992768212,0.002342,0.000178,-0.000162,0.414876,-5.549788,-7.976856
1760390992770403,0.000680,-0.000648,-0.000570,0.421286,-5.548242,-7.980093
1760390992770416,-0.000133,-0.002691,-0.000561,0.414651,-5.557775,-7.951396
1760390992771235,0.001544,-0.000636,-0.001797,0.398704,-5.549818,-7.959473
1760390992772225,0.003992,0.000184,-0.001378,0.417926,-5.552979,-7.965745
1760390992773340,0.000678,-0.001462,0.003110,0.405216,-5.543392,-7.969039
1760390992774307,0.001498,0.002222,-0.001396,0.405242,-5.543420,-7.965888
1760390992775333,0.001119,-0.000647,0.000266,0.414704,-5.528993,-7.962681
1760390992776249,0.004403,-0.002708,-0.004225,0.414642,-5.544991,-7.956234
1760390992777253,0.001522,-0.000636,-0.003030,0.417871,-5.546535,-7.949854
1760390992778451,0.000708,-0.001031,-0.001801,0.414796,-5.535436,-7.970611
1760390992779369,0.000718,0.000188,-0.001384,0.419622,-5.537067,-7.983234
1760390992780346,-0.002131,-0.004348,-0.003039,0.422783,-5.543342,-7.975267
1760390992781344,0.001922,-0.004349,-0.000133,0.403463,-5.544969,-7.949948
1760390992782363,0.002348,-0.000661,-0.000976,0.416310,-5.545036,-7.968929
1760390992783354,0.002761,-0.000645,-0.003014,0.416327,-5.549800,-7.965753
1760390992784339,0.000311,-0.002699,0.000276,0.417930,-5.540248,-7.978429
1760390992785315,-0.000062,-0.002302,-0.003842,0.418074,-5.553060,-7.986375
1760390992786284,0.000332,-0.001089,-0.004666,0.414725,-5.554578,-7.962498
1760390992787242,-0.001724,-0.000635,-0.001820,0.410127,-5.548311,-7.984847
1760390992788213,0.000318,0.000175,-0.000147,0.416351,-5.546539,-7.970485
1760390992789199,-0.001327,0.000576,-0.002225,0.405147,-5.532232,-7.973824
1760390992790324,0.002338,0.000613,-0.000987,0.403674,-5.546639,-7.969072
1760390992791292,-0.002139,-0.001069,-0.002218,0.417906,-5.535366,-7.953171
1760390992792252,-0.003382,-0.000630,-0.000183,0.412969,-5.546524,-7.949879
1760390992793218,0.002344,-0.001053,-0.000560,0.402048,-5.553051,-7.969000
1760390992794339,-0.002982,-0.001889,0.000236,0.405209,-5.551443,-7.973684
1760390992795311,-0.001730,0.001390,-0.004277,0.402001,-5.540239,-7.965951
1760390992796344,-0.002962,-0.001471,-0.002646,0.411612,-5.532241,-7.965939
1760390992797312,-0.002543,0.000170,-0.002648,0.406724,-5.546618,-7.961036
1760390992798401,0.002366,0.000592,-0.003855,0.405258,-5.548208,-7.970670
1760390992799246,0.002791,0.001009,-0.002185,0.416370,-5.541772,-7.972141
1760390992800227,0.001528,-0.002287,-0.001791,0.416293,-5.536993,-7.964213
1760390992801204,-0.002964,0.000588,-0.000602,0.417833,-5.551321,-7.954620
1760390992802343,-0.001741,-0.004339,0.001476,0.416364,-5.538622,-7.965818
1760390992803316,-0.000070,-0.001497,-0.004254,0.429198,-5.546604,-7.978389
1760390992804284,0.001116,-0.000642,0.000260,0.416354,-5.545026,-7.975248
1760390992805295,0.001157,-0.003565,-0.003820,0.398834,-5.530631,-7.975486
1760390992807397,0.001933,-0.001049,-0.000561,0.406746,-5.538627,-7.967433
1760390992807412,0.002746,-0.000211,-0.001371,0.419701,-5.549853,-7.980067
1760390992808222,0.001906,-0.001850,0.000670,0.433862,-5.557782,-7.967149
1760390992809206,-0.001339,-0.002691,-0.000580,0.417899,-5.551377,-7.973599
1760390992810332,0.002336,-0.000620,0.001501,0.417860,-5.549763,-7.957764
1760390992811312,0.000302,-0.002699,-0.001384,0.406845,-5.535495,-7.984899
1760390992812276,-0.002143,-0.004338,0.000242,0.418023,-5.562593,-7.973591
1760390992813233,0.000747,-0.002713,-0.001782,0.411309,-5.536943,-7.946681
1760390992814221,-0.001331,0.000192,-0.001417,0.416217,-5.545007,-7.960973
1760390992815237,0.000318,-0.001884,-0.002612,0.414703,-5.535438,-7.965799
1760390992816237,0.000688,0.001848,0.000649,0.406872,-5.541818,-7.975378
1760390992817220,-0.000506,0.001424,-0.003034,0.417971,-5.544995,-7.970541
1760390992818213,0.001911,0.000200,-0.000572,0.416329,-5.541746,-7.961017
1760390992819336,-0.000897,0.001018,-0.002627,0.414706,-5.548180,-7.954616
1760390992820298,-0.000922,-0.001481,0.000251,0.413113,-5.541787,-7.956293
1760390992821688,-0.001720,0.002616,-0.005112,0.414815,-5.568967,-7.970402
1760390992822343,0.001136,-0.000645,-0.001390,0.400521,-5.546672,-7.977004
1760390992823312,-0.004575,-0.002318,-0.003476,0.411569,-5.543342,-7.968956
1760390992824279,0.003555,-0.001022,-0.000132,0.413237,-5.540231,-7.972225
1760390992825379,0.003588,0.000194,-0.005473,0.411525,-5.540253,-7.964218
1760390992826270,-0.004157,-0.004773,-0.002628,0.408354,-5.535440,-7.961089
1760390992827372,0.001543,-0.004349,-0.000128,0.405410,-5.553009,-7.978587
1760390992828285,0.001554,0.001393,-0.003029,0.409899,-5.538658,-7.962674
1760390992829340,-0.002158,-0.002298,-0.000984,0.406754,-5.535390,-7.961145
1760390992830349,0.002318,-0.002697,0.001094,0.419422,-5.556125,-7.946602
1760390992831344,-0.001333,0.000166,-0.001816,0.416273,-5.538577,-7.959451
1760390992832264,-0.001310,0.000978,-0.002211,0.412931,-5.548095,-7.948227
1760390992833253,0.003164,0.000566,-0.001354,0.395654,-5.530662,-7.969181
1760390992834226,0.000317,-0.001450,0.001074,0.406795,-5.535445,-7.967486
1760390992835211,-0.000913,-0.000250,-0.002626,0.419603,-5.552951,-7.960996
1760390992836338,-0.000933,0.000167,0.000251,0.417895,-5.552982,-7.964098
1760390992837306,0.006419,-0.004753,0.001119,0.403644,-5.546627,-7.978528
1760390992838289,0.002382,-0.002731,-0.003010,0.406925,-5.540285,-7.980176
1760390992839247,0.000295,-0.001058,-0.000569,0.421139,-5.554586,-7.960918
1760390992840223,-0.001347,-0.001072,-0.000581,0.417871,-5.559353,-7.960861
1760390992841247,0.000713,0.000591,-0.002222,0.410085,-5.549793,-7.972181
1760390992842231,-0.000504,-0.003526,0.000266,0.411608,-5.557765,-7.967321
1760390992843516,-0.000498,0.002230,-0.003460,0.403692,-5.548223,-7.969031
1760390992844329,0.001959,0.001408,-0.003025,0.409958,-5.540207,-7.970547
1760390992845296,-0.002573,-0.002707,-0.001812,0.418017,-5.551433,-7.973697
1760390992846254,0.000298,-0.001892,-0.000555,0.421104,-5.538654,-7.965784
1760390992847213,0.000286,-0.000633,-0.000990,0.419685,-5.543456,-7.984837
1760390992848344,-0.001319,-0.003958,-0.002203,0.426041,-5.540215,-7.975307
1760390992849334,0.001907,0.000200,0.001074,0.405302,-5.545056,-7.973854
1760390992850311,-0.001289,-0.003118,-0.004670,0.408596,-5.564216,-7.986431
1760390992851286,-0.001755,-0.001080,-0.001812,0.413165,-5.560953,-7.967275
1760390992852260,-0.000885,-0.003568,-0.003834,0.408505,-5.551414,-7.975378
1760390992853225,-0.001731,-0.002698,-0.000169,0.419849,-5.562657,-7.997519
1760390992854348,0.001152,-0.000241,-0.003026,0.410036,-5.548214,-7.972181
1760390992857060,-0.002146,0.002656,-0.000167,0.410017,-5.548194,-7.968999
1760390992857075,0.001552,-0.002299,-0.002590,0.414777,-5.564141,-7.965656
1760390992857242,0.002322,0.001443,-0.000573,0.406883,-5.556240,-7.970578
1760390992858213,0.001540,-0.000218,-0.001380,0.405289,-5.562636,-7.983208
1760390992859336,0.000711,0.000590,-0.001387,0.418042,-5.557764,-7.975228
1760390992860299,0.001510,-0.003917,0.000275,0.416360,-5.551405,-7.970462
1760390992861247,-0.001727,-0.001879,-0.002621,0.403664,-5.553005,-7.969018
1760390992862224,-0.002549,-0.001867,0.000246,0.410063,-5.548189,-7.969028
1760390992863204,-0.002975,-0.003134,-0.003040,0.416371,-5.554618,-7.972066
1760390992864330,0.005635,0.000604,0.000280,0.417953,-5.549860,-7.968905
1760390992865300,0.001541,-0.001076,-0.004264,0.421147,-5.537031,-7.972153
1760390992866259,-0.000471,-0.001086,-0.006314,0.408391,-5.541825,-7.967430
1760390992867218,-0.001309,0.000169,-0.002643,0.408393,-5.553030,-7.959453
1760390992868351,0.000726,-0.000634,-0.001382,0.413240,-5.540246,-7.988021
1760390992869322,0.000321,-0.004353,-0.002605,0.413154,-5.544964,-7.972096
1760390992870365,0.000323,-0.000644,-0.002206,0.410067,-5.541790,-7.975364
1760390992871340,0.002341,-0.003101,-0.000146,0.409998,-5.544987,-7.972176
1760390992872353,-0.003360,-0.003547,-0.002233,0.424247,-5.544944,-7.962531
1760390992873264,0.001535,-0.001885,-0.001787,0.413190,-5.546669,-7.975287
1760390992874277,-0.002132,-0.005608,-0.001783,0.416483,-5.540290,-7.991252
1760390992875364,-0.001730,-0.000227,-0.001825,0.411632,-5.541843,-7.976906
1760390992876255,-0.002538,0.000576,-0.003458,0.422689,-5.546554,-7.965688
1760390992877333,-0.003383,-0.003523,-0.001000,0.419426,-5.546515,-7.948260
1760390992878327,0.003162,0.000605,-0.000568,0.409990,-5.548240,-7.970543
1760390992879339,-0.001743,-0.001034,-0.000995,0.400466,-5.549810,-7.969090
1760390992880339,-0.001305,-0.001076,-0.002215,0.406825,-5.546577,-7.965835
1760390992881374,0.001122,-0.003920,-0.001787,0.406644,-5.546539,-7.948319
1760390992882357,0.001581,-0.001490,-0.003835,0.414675,-5.549734,-7.959309
1760390992883339,0.001113,-0.003118,-0.000150,0.426041,-5.546611,-7.976869
1760390992884329,-0.001318,0.001426,-0.001409,0.413173,-5.543403,-7.975265
1760390992885296,0.000280,0.001019,0.000662,0.406695,-5.546535,-7.953086
1760390992886255,0.000316,-0.003127,-0.001796,0.425894,-5.541816,-7.972038
1760390992887213,-0.000075,-0.001482,-0.003033,0.405309,-5.551435,-7.981695
1760390992888344,-0.000946,0.000610,0.001466,0.424201,-5.543310,-7.948249
1760390992889313,-0.000483,-0.003959,-0.003418,0.413116,-5.544977,-7.961050
1760390992890278,-0.000538,0.001432,0.000656,0.405281,-5.543446,-7.981735
1760390992891256,0.003145,-0.002292,0.001085,0.429039,-5.548189,-7.967200
1760390992892217,-0.000502,-0.000220,-0.000574,0.413192,-5.553001,-7.972063
1760390992893331,0.001111,-0.001061,-0.000162,0.413205,-5.548191,-7.975315
1760390992894277,-0.000119,-0.000221,0.000637,0.413186,-5.554578,-7.968935
1760390992895266,0.000264,-0.002675,0.001077,0.411669,-5.548141,-7.969003
1760390992896314,0.000315,0.000603,-0.000172,0.416505,-5.553082,-7.984797
1760390992897283,0.000712,0.000618,-0.002612,0.416364,-5.557816,-7.968872
1760390992898262,0.000315,-0.001063,-0.004270,0.406816,-5.533870,-7.981771
1760390992899276,0.001941,-0.004337,-0.000952,0.416494,-5.560963,-7.978401
1760390992900248,-0.000090,-0.001467,-0.002219,0.414908,-5.541841,-7.978544
1760390992901221,-0.001309,0.001381,-0.005084,0.400513,-5.544990,-7.973856
1760390992902360,0.001540,-0.001481,-0.003421,0.414746,-5.543394,-7.970569
1760390992903331,0.003582,-0.001036,-0.003820,0.422832,-5.545033,-7.980051
1760390992904298,0.001090,-0.002684,0.001902,0.411540,-5.548262,-7.968952
1760390992906544,-0.003400,-0.003107,0.003504,0.400494,-5.541902,-7.975478
1760390992906553,-0.000523,0.002256,-0.002225,0.394041,-5.546665,-7.962736
1760390992907355,-0.002153,0.001412,-0.001415,0.406741,-5.527433,-7.956445
1760390992908327,0.000711,0.001003,-0.001808,0.402105,-5.541870,-7.972308
1760390992909297,0.000280,0.001407,-0.001820,0.416287,-5.530682,-7.969005
1760390992910266,-0.001297,-0.004366,-0.001782,0.413115,-5.543342,-7.957811
1760390992911234,0.001917,0.001841,0.000662,0.400319,-5.540236,-7.959498
1760390992912278,0.003155,-0.001039,-0.000158,0.409755,-5.536958,-7.942000
1760390992913240,-0.002503,-0.000669,-0.003450,0.424166,-5.548088,-7.945051
1760390992914210,-0.002959,0.000984,-0.003060,0.401990,-5.533822,-7.964376
1760390992915200,0.000722,-0.001077,-0.002213,0.432252,-5.554496,-7.956060
1760390992916329,-0.000953,0.001840,0.000240,0.419621,-5.551397,-7.972105
1760390992917298,-0.000913,-0.000257,-0.003048,0.414790,-5.551362,-7.970554
1760390992918278,-0.000915,0.000594,-0.003451,0.410043,-5.553014,-7.975328
1760390992920188,-0.004215,0.001814,-0.000195,0.410102,-5.556152,-7.973743
1760390992920357,0.002744,-0.001853,-0.000565,0.414794,-5.541820,-7.976902
1760390992921326,-0.000128,0.001417,-0.000176,0.432272,-5.554546,-7.965604
1760390992922333,-0.001751,-0.002699,-0.000161,0.413256,-5.556133,-7.970512
1760390992923261,0.000301,-0.000628,-0.000584,0.408318,-5.543360,-7.959483
1760390992924371,0.002710,0.000615,0.002303,0.398843,-5.546657,-7.978569
1760390992925379,0.001155,0.000586,-0.004248,0.410004,-5.541836,-7.975345
1760390992926254,-0.002128,0.001409,-0.001399,0.413253,-5.537030,-7.986465
1760390992927294,0.001546,-0.002687,-0.003017,0.417942,-5.543394,-7.962581
1760390992928310,-0.000508,-0.001071,-0.003035,0.417820,-5.528949,-7.953166
1760390992929312,0.001527,0.000993,-0.003857,0.398683,-5.548212,-7.957851
1760390992930304,-0.000949,-0.001455,0.002695,0.409963,-5.556250,-7.964170
1760390992931283,0.001564,-0.005587,-0.002182,0.419621,-5.557830,-7.972069
1760390992932266,0.002336,0.002252,-0.000977,0.411457,-5.546608,-7.959398
1760390992933242,-0.000933,-0.003132,0.000244,0.417908,-5.546585,-7.962568
1760390992934207,0.001539,0.000167,-0.003023,0.421260,-5.546630,-7.981681
1760390992935338,-0.001304,0.000560,-0.003045,0.405228,-5.529074,-7.970702
1760390992936305,0.001159,0.000605,-0.003427,0.414709,-5.533812,-7.957924
1760390992937272,0.000317,-0.003128,-0.002194,0.410000,-5.546563,-7.962639
1760390992938257,0.001918,-0.000624,-0.001395,0.421157,-5.548165,-7.965693
1760390992939216,0.000726,-0.001456,0.000259,0.406767,-5.549790,-7.965777
1760390992940338,-0.000098,-0.004358,-0.000963,0.411706,-5.545030,-7.983325
