monotonic_us,timestamp_us,pqr_x,pqr_y,pqr_z,acc_x,acc_y,acc_z
167,1761934012461668,-0.002624,0.001377,-0.001332,-0.791793,-0.763590,-9.740044
3557,1761934012465058,-0.002560,-0.001062,-0.002570,-0.806199,-0.762174,-9.706595
7797,1761934012469298,-0.003423,-0.003550,-0.000520,-0.798248,-0.762094,-9.703394
11972,1761934012473473,0.000631,-0.001067,-0.002955,-0.801388,-0.755657,-9.722568
14689,1761934012476189,-0.002186,0.000147,-0.001740,-0.787075,-0.765184,-9.716150
18852,1761934012480353,-0.002175,-0.003532,-0.000924,-0.798234,-0.755676,-9.728911
23031,1761934012484532,-0.000558,-0.001870,-0.004200,-0.791874,-0.750839,-9.730544
27185,1761934012488686,0.003540,-0.003085,-0.002135,-0.802993,-0.761960,-9.722582
38219,1761934012499720,-0.004693,0.003002,-0.001337,-0.802950,-0.769958,-9.722555
42389,1761934012503890,0.000259,0.000185,-0.001736,-0.793376,-0.763584,-9.733661
45216,1761934012506717,-0.000198,0.003041,-0.003781,-0.790257,-0.755638,-9.722549
49373,1761934012510874,-0.005069,-0.003154,0.004396,-0.806197,-0.752562,-9.724164
53520,1761934012515021,-0.001386,0.000970,-0.002964,-0.791852,-0.760379,-9.719395
57703,1761934012519204,-0.002592,-0.001478,-0.002569,-0.791765,-0.779571,-9.716146
60554,1761934012522055,-0.001393,-0.001097,-0.002142,-0.804532,-0.746145,-9.732061
72975,1761934012534476,-0.002618,-0.001088,0.002759,-0.798202,-0.750886,-9.732100
75726,1761934012537226,-0.006249,-0.003146,-0.000126,-0.801424,-0.760473,-9.714602
79874,1761934012541375,-0.001795,-0.002293,-0.001339,-0.807748,-0.762069,-9.728869
84050,1761934012545551,0.001082,-0.001038,-0.000921,-0.791861,-0.742866,-9.727350
88183,1761934012549684,-0.002185,0.000564,-0.001743,-0.795039,-0.760421,-9.720948
106213,1761934012567714,0.000628,0.002629,-0.003363,-0.799789,-0.754020,-9.732105
106235,1761934012567736,0.000249,-0.000245,-0.002547,-0.806149,-0.757338,-9.722567
110395,1761934012571896,0.001504,-0.000219,-0.002146,-0.790298,-0.758815,-9.709830
114540,1761934012576041,0.000641,-0.000251,0.001133,-0.791777,-0.766797,-9.743243
117423,1761934012578924,-0.004214,-0.005191,-0.004617,-0.801363,-0.766861,-9.732111
121591,1761934012583092,-0.005904,0.000538,-0.004620,-0.787140,-0.747709,-9.719360
125746,1761934012587246,-0.000152,-0.001892,-0.000503,-0.795030,-0.758858,-9.719355
143824,1761934012605324,-0.001387,-0.002717,-0.000104,-0.807745,-0.755616,-9.725773
143841,1761934012605342,-0.000162,-0.000657,-0.000098,-0.806170,-0.747720,-9.722548
147994,1761934012609494,-0.000969,-0.001901,0.001127,-0.793440,-0.754057,-9.717772
152159,1761934012613660,-0.005061,-0.002724,-0.002168,-0.793418,-0.758818,-9.722544
156288,1761934012617789,0.001484,-0.000222,-0.002554,-0.785512,-0.747675,-9.720928
159008,1761934012620508,-0.000943,-0.005586,-0.000100,-0.801390,-0.746139,-9.741615
163194,1761934012624695,-0.003012,0.000159,-0.002978,-0.799790,-0.754068,-9.730536
167340,1761934012628841,-0.004729,0.002974,0.001947,-0.809343,-0.760448,-9.724140
171520,1761934012633021,-0.002581,-0.005995,-0.000113,-0.795077,-0.750850,-9.714600
182548,1761934012644049,0.000660,0.000163,0.001542,-0.806209,-0.750905,-9.719357
186858,1761934012648359,-0.006736,0.001772,-0.001342,-0.796638,-0.754006,-9.720989
189589,1761934012651090,0.001022,0.005092,-0.000909,-0.790287,-0.755571,-9.722610
193727,1761934012655227,-0.001804,0.001768,-0.002142,-0.783899,-0.760304,-9.724133
197896,1761934012659397,-0.000583,-0.001896,-0.000501,-0.801373,-0.765179,-9.724144
203226,1761934012664727,-0.000990,0.001390,-0.000510,-0.804581,-0.754097,-9.716152
204863,1761934012666364,-0.002614,0.000968,-0.000516,-0.809385,-0.750949,-9.717738
217359,1761934012678860,0.001444,0.003456,-0.002958,-0.807816,-0.744519,-9.732107
220078,1761934012681579,0.001076,-0.002278,0.001539,-0.801448,-0.742915,-9.732121
224252,1761934012685753,-0.003441,0.000145,-0.004608,-0.788608,-0.758667,-9.741676
228412,1761934012689912,-0.002993,-0.002723,-0.003382,-0.801348,-0.750880,-9.736875
232566,1761934012694066,-0.004221,-0.002310,-0.002575,-0.790270,-0.752420,-9.728895
235290,1761934012696791,0.002298,-0.003927,-0.001320,-0.788646,-0.757187,-9.733672
239453,1761934012700954,-0.000961,-0.001904,-0.003781,-0.798276,-0.742885,-9.720977
250559,1761934012712060,0.002290,-0.003099,0.000318,-0.785500,-0.755573,-9.732119
254849,1761934012716350,-0.002616,-0.002726,-0.002561,-0.809362,-0.760405,-9.722591
259007,1761934012720508,0.001061,0.003441,-0.000088,-0.804558,-0.766853,-9.720938
263195,1761934012724696,-0.004265,0.001760,-0.000514,-0.795052,-0.758808,-9.716185
265907,1761934012727408,-0.000965,-0.003106,-0.001329,-0.794970,-0.766767,-9.728909
282522,1761934012744022,0.002318,-0.003092,-0.002144,-0.815710,-0.758874,-9.727342
282531,1761934012744032,-0.000554,-0.001467,-0.002969,-0.782250,-0.769915,-9.728905
282535,1761934012744036,-0.003058,-0.000277,-0.005834,-0.779057,-0.768342,-9.736868
283981,1761934012745482,0.002739,-0.000217,-0.003373,-0.802996,-0.757266,-9.722564
288131,1761934012749631,-0.000145,-0.001069,-0.001737,-0.790240,-0.765164,-9.720940
292299,1761934012753799,-0.002188,0.000170,-0.001343,-0.806152,-0.763608,-9.725731
303327,1761934012764827,0.001100,-0.000227,-0.004194,-0.807789,-0.755699,-9.725734
322802,1761934012784302,-0.003882,0.002582,-0.000918,-0.796630,-0.747637,-9.733740
322811,1761934012784312,-0.001854,0.000969,-0.000919,-0.820488,-0.752525,-9.727343
322815,1761934012784316,-0.004232,0.000558,-0.002985,-0.804612,-0.741408,-9.730482
322819,1761934012784320,-0.005062,-0.002321,-0.002571,-0.799798,-0.754047,-9.740061
325531,1761934012787032,0.001874,-0.002278,0.000724,-0.795002,-0.761983,-9.733687
329693,1761934012791193,-0.001404,0.001790,0.001539,-0.801420,-0.750835,-9.721007
340873,1761934012802374,-0.003034,-0.000267,0.003574,-0.790294,-0.754069,-9.714586
345035,1761934012806536,-0.002254,0.002598,0.000312,-0.803004,-0.754006,-9.725739
349187,1761934012810688,0.000666,0.000170,-0.004597,-0.804569,-0.758784,-9.730536
351904,1761934012813405,0.001504,-0.002270,-0.001739,-0.785566,-0.757259,-9.700267
356058,1761934012817559,-0.003054,0.002199,-0.000923,-0.785471,-0.758745,-9.732127
360216,1761934012821717,0.001508,-0.001866,-0.003373,-0.804596,-0.747701,-9.728920
364387,1761934012825888,0.000724,-0.004733,0.001120,-0.796586,-0.753998,-9.744804
375556,1761934012837056,-0.001424,-0.001090,-0.002549,-0.793489,-0.746060,-9.727354
379707,1761934012841208,-0.000959,-0.001894,-0.002966,-0.806163,-0.752440,-9.736879
382435,1761934012843935,-0.000599,0.000563,-0.001735,-0.793526,-0.746099,-9.711414
386586,1761934012848087,-0.000969,-0.003132,-0.002553,-0.809388,-0.746200,-9.716204
390758,1761934012852259,-0.000968,-0.003102,0.001941,-0.801502,-0.733396,-9.714625
394912,1761934012856413,0.002727,-0.002681,0.003591,-0.804625,-0.736581,-9.728920
397795,1761934012859296,-0.001773,-0.001902,0.000713,-0.806210,-0.739761,-9.728899
410261,1761934012871762,-0.000535,-0.001890,-0.002558,-0.806212,-0.738167,-9.730501
412988,1761934012874489,0.000247,0.000980,-0.002137,-0.802975,-0.762029,-9.728909
417199,1761934012878700,-0.002561,-0.007234,0.000301,-0.783912,-0.752379,-9.725761
421372,1761934012882873,-0.002203,-0.001080,-0.000511,-0.796643,-0.765122,-9.711437
425560,1761934012887061,0.003110,0.000184,0.001546,-0.798249,-0.746022,-9.736921
428282,1761934012889783,-0.000570,0.001372,-0.003779,-0.812589,-0.750929,-9.716228
432434,1761934012893935,0.000308,-0.003526,-0.002148,-0.791895,-0.757155,-9.713039
443601,1761934012905102,0.000626,0.002617,0.000321,-0.795071,-0.750854,-9.719400
451932,1761934012913433,-0.000137,0.000984,-0.001325,-0.788700,-0.749285,-9.716206
453207,1761934012914708,-0.002165,-0.003108,-0.004206,-0.801428,-0.754087,-9.712994
457388,1761934012918889,0.000224,0.002212,-0.002549,-0.785457,-0.763545,-9.725698
468570,1761934012930071,-0.000163,-0.002709,-0.002554,-0.785525,-0.755606,-9.722528
472743,1761934012934244,0.000255,0.000164,-0.002144,-0.791889,-0.752420,-9.720968
476910,1761934012938411,-0.002623,-0.000675,-0.002561,-0.793471,-0.749326,-9.728915
481078,1761934012942579,0.001009,0.000582,-0.000085,-0.787131,-0.749276,-9.712999
499101,1761934012960602,-0.003413,0.000979,-0.002979,-0.783884,-0.750869,-9.733683
499108,1761934012960609,-0.000583,0.003019,-0.000504,-0.790303,-0.752477,-9.717795
499176,1761934012960677,0.000672,-0.001448,-0.000512,-0.798249,-0.755659,-9.717775
499186,1761934012960687,-0.003406,-0.002314,-0.000517,-0.799754,-0.765218,-9.728888
511518,1761934012973018,0.000654,-0.001475,0.003585,-0.801424,-0.757270,-9.714607
514373,1761934012975873,-0.002188,-0.000240,-0.002975,-0.802976,-0.755633,-9.728946
518547,1761934012980047,-0.003018,-0.001483,-0.002975,-0.790253,-0.757148,-9.728934
522709,1761934012984210,-0.002598,0.000571,-0.000520,-0.801426,-0.752467,-9.722527
526854,1761934012988354,-0.000159,0.000576,-0.002555,-0.806173,-0.754044,-9.733747
529585,1761934012991085,-0.000969,-0.001066,-0.002147,-0.798241,-0.749259,-9.716188
533728,1761934012995229,-0.003019,0.000541,0.000304,-0.801447,-0.741295,-9.725759
544944,1761934013006445,-0.003453,0.000546,0.002757,-0.810965,-0.752474,-9.724170
549096,1761934013010597,-0.000996,-0.001897,0.000719,-0.798192,-0.770038,-9.712938
553246,1761934013014747,-0.000968,0.000985,-0.003375,-0.787005,-0.770024,-9.719316
557416,1761934013018917,0.003088,0.001005,-0.001720,-0.806201,-0.757253,-9.720995
560122,1761934013021623,-0.001827,0.000969,-0.003374,-0.791857,-0.750850,-9.735309
564313,1761934013025814,-0.001334,-0.003523,0.000302,-0.796602,-0.755663,-9.735277
568487,1761934013029988,-0.000571,-0.001485,0.001542,-0.791817,-0.763558,-9.727339
579650,1761934013041151,0.002221,0.000175,0.004007,-0.806137,-0.754020,-9.735317
583825,1761934013045326,-0.001784,-0.001902,-0.000102,-0.806103,-0.768445,-9.730517
587974,1761934013049475,0.001090,0.001398,0.000727,-0.793336,-0.771631,-9.736830
590712,1761934013052213,0.001876,0.000166,-0.003773,-0.799816,-0.741304,-9.735293
594858,1761934013056358,-0.003040,0.000558,-0.005429,-0.802979,-0.763597,-9.719389
599008,1761934013060509,-0.000584,0.001794,-0.001324,-0.807810,-0.749315,-9.713023
603196,1761934013064697,-0.003475,0.000961,-0.000102,-0.802956,-0.760493,-9.717747
614220,1761934013075721,-0.002611,0.000147,-0.001741,-0.798174,-0.760487,-9.722538
618381,1761934013079882,-0.001829,0.000546,0.001952,-0.788629,-0.760400,-9.728868
621277,1761934013082778,0.003483,0.001404,-0.000081,-0.804539,-0.755713,-9.732074
639342,1761934013100843,-0.003879,0.002585,-0.005833,-0.798231,-0.754148,-9.719339
639347,1761934013100848,-0.003034,-0.000268,-0.002972,-0.807814,-0.739793,-9.719391
643509,1761934013105010,0.001097,-0.002718,-0.000092,-0.793472,-0.755636,-9.719398
646217,1761934013107718,0.000245,0.000994,-0.001737,-0.799790,-0.760389,-9.738437
650383,1761934013111884,-0.002639,0.000540,0.001945,-0.793378,-0.763521,-9.747988
654529,1761934013116029,-0.004267,-0.001916,-0.004610,-0.796606,-0.766756,-9.725719
658688,1761934013120189,0.001068,-0.001864,-0.000511,-0.812572,-0.754104,-9.717795
665581,1761934013127082,-0.000573,0.003039,-0.003377,-0.794991,-0.763564,-9.730485
669739,1761934013131239,0.000171,0.006741,-0.000502,-0.799812,-0.762013,-9.727326
673907,1761934013135407,-0.002216,-0.001915,-0.000509,-0.790280,-0.757243,-9.711431
676802,1761934013138303,0.000671,-0.000637,-0.002560,-0.801466,-0.735000,-9.730492
680947,1761934013142447,-0.000235,0.003417,-0.002539,-0.793541,-0.744439,-9.717845
685109,1761934013146609,0.001482,-0.000645,-0.002147,-0.788686,-0.758769,-9.719391
689263,1761934013150764,-0.004233,-0.001091,-0.001749,-0.791848,-0.754000,-9.727304
703207,1761934013164707,-0.002593,-0.000674,-0.000110,-0.793433,-0.763637,-9.719310
704512,1761934013166013,-0.002611,0.000555,-0.002972,-0.791900,-0.760473,-9.709792
707229,1761934013168730,-0.001754,-0.002702,-0.000108,-0.801437,-0.762025,-9.713015
711415,1761934013172915,-0.001375,-0.001046,-0.005024,-0.795043,-0.760397,-9.719387
715841,1761934013177342,-0.000198,0.005888,-0.001319,-0.810932,-0.754118,-9.732089
720006,1761934013181507,-0.002590,-0.000677,-0.000922,-0.799751,-0.762066,-9.728850
722592,1761934013184093,-0.000575,0.000982,0.001535,-0.796632,-0.757263,-9.725713
735179,1761934013196680,0.002314,0.000192,-0.002141,-0.810936,-0.752522,-9.736864
737782,1761934013199283,-0.000557,-0.004328,-0.001336,-0.812520,-0.750938,-9.728916
741952,1761934013203453,0.001873,0.000573,-0.001726,-0.799805,-0.750895,-9.724128
746111,1761934013207612,-0.000579,-0.000661,-0.002142,-0.798187,-0.765245,-9.719377
750348,1761934013211849,0.000736,-0.005548,-0.004199,-0.790274,-0.754021,-9.719419
753055,1761934013214555,-0.000953,-0.001071,-0.004195,-0.790277,-0.754051,-9.720977
757230,1761934013218731,0.001851,-0.000242,-0.004592,-0.807795,-0.747702,-9.727358
768393,1761934013229894,0.001442,0.000168,-0.006223,-0.812535,-0.747708,-9.732139
772547,1761934013234048,0.001878,0.000598,-0.005005,-0.804657,-0.746146,-9.709838
776714,1761934013238215,-0.000611,0.001773,0.001958,-0.804622,-0.747676,-9.720988
780874,1761934013242375,0.000627,-0.001077,-0.000086,-0.810949,-0.763675,-9.720977
783604,1761934013245105,0.000227,0.000162,0.001953,-0.809375,-0.746090,-9.738489
787749,1761934013249250,-0.001774,-0.001080,-0.000512,-0.802990,-0.750854,-9.736869
791930,1761934013253431,0.002295,-0.001875,-0.002137,-0.801414,-0.750867,-9.738447
803115,1761934013264616,-0.001810,0.000568,-0.004196,-0.802973,-0.746055,-9.744862
807269,1761934013268770,-0.002235,0.000550,-0.001738,-0.802982,-0.752393,-9.738472
811453,1761934013272954,0.000246,0.002191,-0.000903,-0.793478,-0.747697,-9.714618
814166,1761934013275667,-0.003437,0.001381,-0.001333,-0.804623,-0.746173,-9.717772
818337,1761934013279838,-0.002541,-0.005991,-0.000932,-0.804560,-0.765236,-9.719354
822478,1761934013283979,-0.006280,-0.001924,-0.005439,-0.796613,-0.755612,-9.735293
826627,1761934013288128,0.003135,-0.000626,-0.000913,-0.801440,-0.752467,-9.716204
837796,1761934013299296,-0.001412,0.002210,-0.007874,-0.799827,-0.758857,-9.711447
855858,1761934013317358,-0.001388,0.002616,-0.002972,-0.798255,-0.747690,-9.730518
855871,1761934013317372,-0.001825,0.001781,-0.005415,-0.807788,-0.752492,-9.717811
855875,1761934013317376,-0.002222,-0.000659,-0.001744,-0.794984,-0.758832,-9.744816
855879,1761934013317380,-0.003859,-0.000266,-0.002975,-0.801345,-0.765236,-9.730514
858597,1761934013320098,0.003126,-0.003091,-0.000906,-0.806164,-0.758845,-9.724152
862756,1761934013324256,0.001491,-0.003914,-0.001328,-0.810998,-0.750915,-9.717802
866900,1761934013328400,0.000649,-0.000253,0.000317,-0.799811,-0.755613,-9.722576
878078,1761934013339579,-0.005009,-0.003538,-0.004629,-0.810980,-0.747763,-9.722528
882234,1761934013343735,-0.001395,-0.002297,0.000714,-0.804571,-0.766814,-9.717769
884956,1761934013346457,-0.000943,-0.002303,-0.000104,-0.785451,-0.765206,-9.716182
889107,1761934013350608,0.000709,-0.004325,-0.004604,-0.804599,-0.752458,-9.736925
893259,1761934013354759,-0.000599,-0.000258,-0.001318,-0.795028,-0.755665,-9.732115
897420,1761934013358921,0.003109,-0.001034,0.000319,-0.801347,-0.766792,-9.724162
900295,1761934013361796,0.003112,-0.001877,0.000740,-0.780748,-0.757186,-9.716198
912725,1761934013374226,-0.003845,0.000566,-0.000523,-0.803012,-0.754084,-9.727310
915475,1761934013376976,-0.001332,-0.007222,-0.002565,-0.787074,-0.753995,-9.738459
919623,1761934013381124,0.000604,0.002617,0.000728,-0.793385,-0.773207,-9.720918
923756,1761934013385257,-0.002654,0.000540,0.000314,-0.799859,-0.749198,-9.736902
927932,1761934013389433,0.003970,-0.004715,0.000315,-0.804552,-0.755577,-9.732168
930819,1761934013392320,-0.002994,-0.001904,-0.002152,-0.783871,-0.757165,-9.725729
934971,1761934013396472,-0.003449,-0.000270,-0.001328,-0.788613,-0.768355,-9.732046
945997,1761934013407497,-0.001785,-0.000674,-0.001330,-0.793520,-0.747600,-9.724176
950183,1761934013411684,-0.002589,-0.001908,-0.000517,-0.795081,-0.753975,-9.727354
954359,1761934013415860,-0.000568,0.001408,-0.000929,-0.796626,-0.749259,-9.724120
958584,1761934013420085,-0.001788,0.000581,-0.001745,-0.782349,-0.750808,-9.722532
961310,1761934013422810,-0.001380,-0.005164,-0.000930,-0.798225,-0.760326,-9.727348
965481,1761934013426982,-0.001804,0.000564,-0.003787,-0.810938,-0.757208,-9.740076
971846,1761934013433347,-0.001402,-0.000250,-0.000916,-0.803003,-0.758916,-9.728884
980724,1761934013442225,0.000653,-0.002291,0.003173,-0.791833,-0.758785,-9.725714
998742,1761934013460243,0.000258,-0.005990,-0.000502,-0.793372,-0.758879,-9.741619
998765,1761934013460266,-0.004271,0.000545,-0.000928,-0.791795,-0.749279,-9.757522
1004294,1761934013465795,-0.001351,-0.002725,0.000310,-0.799871,-0.739713,-9.722569
1007081,1761934013468581,-0.003038,-0.002730,0.000712,-0.793404,-0.757193,-9.735291
1011283,1761934013472783,-0.005074,0.000960,0.000704,-0.798165,-0.758834,-9.730529
1015477,1761934013476977,-0.002554,-0.004758,0.001110,-0.791866,-0.739724,-9.738466
1030681,1761934013492182,0.001883,0.001401,-0.004595,-0.804572,-0.758837,-9.735289
1030699,1761934013492200,-0.001808,-0.000245,0.000300,-0.779059,-0.763539,-9.735256
1030703,1761934013492204,-0.000127,-0.000643,-0.002563,-0.788687,-0.750734,-9.735310
1032147,1761934013493648,0.001091,-0.002251,-0.002562,-0.793455,-0.763620,-9.708235
1044606,1761934013506107,-0.004664,0.000537,-0.001749,-0.801389,-0.758831,-9.733692
1047324,1761934013508825,-0.002639,0.001387,-0.002155,-0.804509,-0.769960,-9.738418
1051498,1761934013512999,0.000721,-0.004732,-0.004607,-0.798189,-0.757313,-9.730468
1055656,1761934013517157,-0.000119,-0.001053,-0.005013,-0.788716,-0.747661,-9.717786
1059802,1761934013521303,0.001071,-0.001477,-0.002144,-0.795121,-0.736465,-9.722593
1062549,1761934013524050,-0.001395,0.000964,-0.002555,-0.799792,-0.758884,-9.722545
1066715,1761934013528216,-0.000175,0.000968,-0.001322,-0.804595,-0.755672,-9.724131
1077923,1761934013539424,-0.000213,0.002623,-0.002548,-0.809357,-0.758884,-9.717754
1082076,1761934013543577,0.000247,0.001380,-0.000088,-0.802955,-0.766772,-9.732085
1086223,1761934013547724,-0.003014,0.000140,-0.000514,-0.801364,-0.771619,-9.719323
1090392,1761934013551893,-0.002203,-0.002306,0.000712,-0.799829,-0.757262,-9.719337
1093110,1761934013554611,-0.000572,0.000179,-0.002148,-0.798198,-0.754089,-9.730463
1097246,1761934013558747,0.001081,-0.000640,0.001949,-0.803025,-0.746045,-9.719406
1101524,1761934013563025,-0.000570,0.000157,-0.000097,-0.810930,-0.758810,-9.733713
1112567,1761934013574068,-0.000152,-0.001877,-0.003377,-0.806154,-0.757271,-9.725735
1116734,1761934013578235,0.001903,-0.005156,-0.000501,-0.788594,-0.779533,-9.716147
1120875,1761934013582375,0.001106,-0.006378,-0.002554,-0.810973,-0.760411,-9.724192
1123619,1761934013585120,-0.003827,-0.002724,-0.000928,-0.795015,-0.763615,-9.722555
1127774,1761934013589275,0.001903,-0.000638,-0.000914,-0.793439,-0.750843,-9.716190
1131939,1761934013593439,0.000628,0.000980,-0.001729,-0.804639,-0.752454,-9.703474
1136143,1761934013597644,-0.000965,-0.001886,-0.002562,-0.807766,-0.755647,-9.724111
1147337,1761934013608838,-0.000128,-0.001470,-0.000928,-0.791813,-0.768377,-9.720917
1151512,1761934013613013,-0.000532,-0.003927,-0.005425,-0.804573,-0.762042,-9.714606
1154207,1761934013615708,-0.003815,-0.001501,-0.001336,-0.804659,-0.741404,-9.714621
1158371,1761934013619871,-0.002233,-0.000674,-0.002147,-0.799820,-0.758865,-9.724119
1176457,1761934013637958,0.000199,0.001395,0.000719,-0.788650,-0.760421,-9.716208
1176476,1761934013637976,0.001428,0.001398,-0.000093,-0.790223,-0.762029,-9.724132
1176480,1761934013637981,0.001015,-0.000253,-0.000493,-0.802941,-0.749306,-9.740044
1177768,1761934013639269,-0.003842,-0.002718,-0.002569,-0.807706,-0.766849,-9.732081
1181919,1761934013643420,-0.001388,-0.001904,-0.000913,-0.806106,-0.762033,-9.736866
1184801,1761934013646302,-0.001841,0.000951,-0.002550,-0.815655,-0.765311,-9.724119
1211197,1761934013672698,0.001099,-0.004756,-0.002144,-0.793400,-0.761972,-9.735245
1211216,1761934013672717,-0.003045,-0.000266,-0.003379,-0.798170,-0.765271,-9.716131
1213934,1761934013675435,0.001089,-0.001040,-0.000919,-0.796630,-0.762032,-9.714600
1218010,1761934013679511,-0.000154,0.000974,0.000317,-0.822083,-0.757300,-9.719382
1222165,1761934013683666,-0.003439,0.000128,0.000304,-0.798258,-0.755594,-9.714629
1225049,1761934013686550,-0.000136,-0.001461,-0.001744,-0.798261,-0.757236,-9.719382
1229217,1761934013690718,0.001453,-0.003112,0.000731,-0.798189,-0.768434,-9.720942
1233364,1761934013694864,-0.001031,0.000545,-0.000908,-0.795041,-0.757221,-9.724154
1237547,1761934013699048,0.003128,-0.003095,-0.004178,-0.793474,-0.761969,-9.725712
1248575,1761934013710076,0.000280,-0.001043,-0.000919,-0.799778,-0.770011,-9.725725
1252738,1761934013714239,-0.001335,-0.003537,0.001124,-0.793485,-0.747607,-9.722588
1255499,1761934013716999,-0.001397,0.003443,-0.002560,-0.798286,-0.744530,-9.714605
1259647,1761934013721148,-0.000993,0.001392,-0.000506,-0.798211,-0.754026,-9.722542
1263821,1761934013725322,0.003936,-0.000228,-0.000903,-0.802998,-0.754019,-9.725762
1267971,1761934013729472,-0.003448,-0.000667,-0.000520,-0.804610,-0.744605,-9.724151
1270868,1761934013732369,-0.000579,-0.001506,-0.000909,-0.785436,-0.758853,-9.740019
1283346,1761934013744846,0.002302,-0.002280,-0.000094,-0.803059,-0.758892,-9.706644
1286088,1761934013747588,0.002325,-0.001854,0.000720,-0.801427,-0.755672,-9.714603
1290272,1761934013751773,0.000655,-0.000233,-0.003376,-0.796586,-0.760472,-9.728901
1294428,1761934013755929,0.004709,0.000610,-0.002946,-0.798201,-0.752428,-9.736879
1298602,1761934013760103,-0.001388,-0.003523,0.000300,-0.799803,-0.742945,-9.746425
1301323,1761934013762824,0.000219,0.003022,-0.000504,-0.791914,-0.747683,-9.720970
1305491,1761934013766992,-0.002610,-0.001055,-0.000934,-0.788590,-0.768419,-9.732070
1316619,1761934013778120,0.006409,-0.003481,-0.001718,-0.799798,-0.750858,-9.733683
1321182,1761934013782682,-0.000195,-0.000244,-0.000504,-0.798232,-0.749218,-9.727365
1324923,1761934013786424,-0.001370,-0.002708,-0.005836,-0.810910,-0.758873,-9.724137
1329095,1761934013790596,0.001121,-0.001470,-0.004604,-0.796640,-0.762047,-9.716150
1331825,1761934013793326,-0.000974,-0.000655,-0.003785,-0.798123,-0.769975,-9.732084
1335979,1761934013797480,0.000224,0.001388,0.000316,-0.795010,-0.763581,-9.724153
1354167,1761934013815668,-0.000981,0.002227,-0.002973,-0.795039,-0.747654,-9.730525
1354174,1761934013815675,-0.001007,0.003836,-0.001729,-0.806225,-0.747699,-9.724148
1354178,1761934013815679,-0.001818,0.002614,0.001125,-0.795053,-0.760420,-9.709863
1355471,1761934013816972,0.001924,0.000186,0.001126,-0.812572,-0.749353,-9.714577
1366626,1761934013828127,0.001095,-0.000220,-0.002150,-0.801377,-0.758909,-9.728889
1370820,1761934013832321,-0.002590,0.000545,-0.002967,-0.794998,-0.755620,-9.736877
1379140,1761934013840640,-0.000187,0.003037,-0.003779,-0.788671,-0.760370,-9.719362
1380395,1761934013841896,-0.000105,-0.005952,-0.001751,-0.787091,-0.746022,-9.730498
1384573,1761934013846074,0.002712,-0.001045,-0.003780,-0.814161,-0.752598,-9.719337
1387440,1761934013848941,-0.001794,-0.003135,-0.000508,-0.798248,-0.750841,-9.727302
1391611,1761934013853112,0.001926,-0.003082,-0.004603,-0.802983,-0.750929,-9.725735
1395773,1761934013857274,-0.002190,-0.003532,-0.002156,-0.806058,-0.765285,-9.740042
1406824,1761934013868325,0.000275,-0.004329,-0.002976,-0.815739,-0.749325,-9.724173
1410999,1761934013872499,0.002653,0.003024,-0.001302,-0.810984,-0.755650,-9.711406
1415581,1761934013877082,0.001083,-0.002689,-0.002555,-0.807770,-0.747714,-9.728896
1417880,1761934013879381,-0.001009,0.002591,-0.002957,-0.799862,-0.752467,-9.725706
1422057,1761934013883558,-0.000583,-0.000225,-0.002974,-0.812486,-0.760415,-9.741669
1426310,1761934013887811,-0.002620,-0.000286,0.000312,-0.815730,-0.746120,-9.735304
1430492,1761934013891993,0.003514,-0.000633,-0.000491,-0.815737,-0.746104,-9.728957
1441526,1761934013903027,-0.002599,-0.000676,-0.002154,-0.798192,-0.741302,-9.728909
1445678,1761934013907179,-0.002211,0.001365,-0.003784,-0.799781,-0.752473,-9.736874
1448415,1761934013909916,0.000677,0.002629,0.001543,-0.799862,-0.749278,-9.716217
1452565,1761934013914066,-0.000571,-0.000259,0.001541,-0.812558,-0.757300,-9.713031
1456729,1761934013918230,0.001914,-0.002674,-0.000515,-0.802947,-0.768413,-9.719386
1461035,1761934013922536,0.000717,-0.001057,-0.004604,-0.801358,-0.754061,-9.733683
1463761,1761934013925262,-0.003816,-0.003128,-0.001756,-0.806134,-0.762077,-9.722536
1476265,1761934013937766,0.002281,-0.002274,-0.000097,-0.807769,-0.749351,-9.728893
1478998,1761934013940499,-0.000999,-0.000246,-0.001328,-0.807746,-0.755675,-9.732079
1483161,1761934013944662,-0.000171,-0.001066,-0.000506,-0.798228,-0.752449,-9.725740
1487311,1761934013948812,0.001917,-0.002699,-0.002962,-0.799828,-0.749305,-9.722518
1491489,1761934013952990,-0.003504,0.003819,-0.001324,-0.798227,-0.749259,-9.725716
1494274,1761934013955774,-0.004717,0.003819,0.000298,-0.810875,-0.766824,-9.732097
1498435,1761934013959936,0.000233,-0.000239,-0.001730,-0.801438,-0.744435,-9.728920
1509472,1761934013970973,0.001073,-0.002282,-0.000914,-0.801386,-0.754031,-9.725729
1513787,1761934013975287,0.000667,-0.001463,-0.001737,-0.804584,-0.752467,-9.717784
1531705,1761934013993206,0.000664,-0.000654,0.000309,-0.793431,-0.766733,-9.719393
1533149,1761934013994650,-0.000562,-0.001062,-0.001333,-0.812520,-0.755628,-9.736864
1535880,1761934013997381,0.000269,-0.002277,-0.001333,-0.803045,-0.752466,-9.711443
1540027,1761934014001528,-0.005025,-0.003143,-0.002162,-0.793499,-0.747672,-9.725745
1544202,1761934014005703,0.003131,-0.000606,-0.002146,-0.799835,-0.749298,-9.720980
1548346,1761934014009846,0.001488,-0.003107,-0.000504,-0.793444,-0.755648,-9.720953
1560833,1761934014022334,0.001866,0.000586,-0.002545,-0.798246,-0.755586,-9.719391
1560840,1761934014022341,-0.002621,0.000148,-0.003790,-0.783916,-0.754004,-9.722559
1562293,1761934014023794,-0.001744,-0.003527,-0.002159,-0.795048,-0.742799,-9.741684
1573453,1761934014034954,-0.005064,-0.004365,-0.002984,-0.795037,-0.754031,-9.724170
1577492,1761934014038993,-0.002637,-0.000243,-0.001750,-0.799838,-0.749265,-9.727352
1580367,1761934014041868,-0.001405,-0.000665,-0.001740,-0.802989,-0.763673,-9.708229
1584555,1761934014046056,-0.002211,0.000173,-0.004200,-0.795072,-0.746104,-9.711401
1588709,1761934014050210,-0.005082,-0.000691,-0.000515,-0.796630,-0.749282,-9.740078
1592856,1761934014054357,0.000247,0.000172,-0.000920,-0.817232,-0.770070,-9.743233
1595599,1761934014057100,-0.001827,0.000544,0.000718,-0.807724,-0.765297,-9.724091
1608025,1761934014069526,-0.004262,-0.000675,-0.002572,-0.795046,-0.760437,-9.717758
1610917,1761934014072418,-0.000122,-0.003930,0.001123,-0.796650,-0.750837,-9.727359
1615079,1761934014076580,-0.002638,0.001388,0.000713,-0.799784,-0.755680,-9.728901
1619234,1761934014080735,-0.005045,-0.002740,-0.002981,-0.801383,-0.746145,-9.730487
1623400,1761934014084901,0.000637,-0.001466,-0.002554,-0.783882,-0.750805,-9.730507
1626121,1761934014087622,-0.003003,-0.000259,-0.003385,-0.793455,-0.753973,-9.719422
1630272,1761934014091772,-0.000937,-0.004340,0.002758,-0.783898,-0.749225,-9.732100
1641474,1761934014102975,0.001489,-0.002279,-0.000508,-0.799822,-0.755673,-9.716201
1645641,1761934014107141,0.003948,-0.001439,0.000319,-0.801441,-0.747748,-9.716187
1649781,1761934014111282,-0.000171,-0.000247,-0.001325,-0.814139,-0.747771,-9.724141
1653934,1761934014115434,-0.001404,-0.002326,-0.003370,-0.804554,-0.754008,-9.735275
1656682,1761934014118183,-0.002155,-0.005580,-0.003798,-0.803034,-0.744476,-9.735303
1660831,1761934014122331,-0.000112,-0.002677,-0.005022,-0.783883,-0.750832,-9.738486
1665003,1761934014126504,0.001413,0.003852,-0.000899,-0.798221,-0.742888,-9.733733
1676041,1761934014137541,0.000632,-0.000644,-0.000503,-0.796645,-0.752447,-9.722537
1680198,1761934014141699,-0.000552,-0.001483,-0.003783,-0.799792,-0.749354,-9.728916
1684381,1761934014145882,0.001479,-0.001456,-0.000504,-0.798184,-0.752434,-9.733664
1687221,1761934014148721,-0.003013,-0.001901,-0.002969,-0.794931,-0.766790,-9.740025
1691387,1761934014152888,0.001872,0.000570,-0.001724,-0.801410,-0.744460,-9.733705
1709413,1761934014170914,-0.000165,0.002633,-0.001742,-0.812546,-0.768389,-9.724157
1709432,1761934014170933,-0.004236,-0.000255,-0.002577,-0.787096,-0.745974,-9.732157
1709436,1761934014170937,-0.001812,0.003015,-0.003372,-0.802987,-0.752441,-9.719389
1710747,1761934014172248,-0.001017,0.000151,0.000314,-0.803048,-0.749282,-9.708227
1713623,1761934014175124,-0.001393,-0.000643,-0.002562,-0.795064,-0.752397,-9.714641
1726130,1761934014187631,-0.000970,-0.004352,-0.000103,-0.807766,-0.763601,-9.716206
1742808,1761934014204309,-0.000575,-0.003535,0.001133,-0.798177,-0.752495,-9.735250
1742869,1761934014204370,-0.003419,0.000129,0.001126,-0.810961,-0.750920,-9.732116
1746873,1761934014208374,-0.003797,-0.002732,0.001115,-0.790270,-0.758802,-9.724129
1751067,1761934014212568,0.001483,-0.001466,0.000728,-0.795054,-0.752480,-9.722553
1755221,1761934014216722,-0.001782,-0.001911,-0.002146,-0.795066,-0.744503,-9.722586
1757970,1761934014219471,-0.001780,-0.003114,0.002346,-0.809383,-0.750929,-9.714588
1762207,1761934014223708,0.002294,-0.000230,-0.002956,-0.804650,-0.733405,-9.725758
1766374,1761934014227875,-0.001799,-0.001079,-0.003378,-0.806230,-0.744538,-9.730511
1777441,1761934014238942,-0.000574,0.000955,-0.002544,-0.825246,-0.754040,-9.740094
1781605,1761934014243106,0.002715,-0.001869,-0.000092,-0.798219,-0.758849,-9.730479
1785761,1761934014247261,-0.001766,-0.000254,-0.000104,-0.785455,-0.765122,-9.727316
1788492,1761934014249993,-0.002187,-0.000246,-0.005021,-0.791971,-0.746052,-9.698711
1792655,1761934014254156,-0.003019,0.000152,-0.002566,-0.812620,-0.750886,-9.711463
1796853,1761934014258354,0.000625,0.005500,-0.002961,-0.785603,-0.746128,-9.698683
1801015,1761934014262516,0.004353,0.003069,-0.006639,-0.804561,-0.770041,-9.708182
1812181,1761934014273682,-0.003829,-0.002728,0.001117,-0.809379,-0.763630,-9.720947
1816359,1761934014277860,-0.005074,0.000539,0.000703,-0.822128,-0.747750,-9.730528
1819074,1761934014280574,0.001062,-0.000651,-0.002550,-0.804617,-0.752489,-9.720974
1823235,1761934014284736,-0.002217,0.001792,-0.005830,-0.787042,-0.765137,-9.727342
1827384,1761934014288885,-0.001412,-0.001072,-0.003785,-0.787074,-0.753951,-9.733676
1831550,1761934014293051,0.000687,-0.001874,-0.004191,-0.790316,-0.741298,-9.714586
1834281,1761934014295782,-0.003829,-0.003137,-0.003792,-0.804632,-0.741323,-9.727340
1846900,1761934014308401,-0.004718,0.001356,0.000713,-0.795102,-0.739711,-9.720947
1849630,1761934014311130,-0.002222,0.000969,0.001536,-0.803032,-0.750914,-9.714592
1853787,1761934014315288,0.002291,-0.000219,-0.001733,-0.791811,-0.761914,-9.730545
1857969,1761934014319470,-0.001377,0.000168,-0.000516,-0.790152,-0.781086,-9.727324
1862121,1761934014323621,-0.000971,0.001817,-0.002561,-0.791786,-0.763560,-9.728924
1864852,1761934014326353,-0.001387,0.000974,-0.003379,-0.798210,-0.755636,-9.725746
1868982,1761934014330483,0.002737,-0.002259,-0.002143,-0.791873,-0.754022,-9.720966
1877349,1761934014338850,0.000239,-0.000674,-0.002949,-0.801423,-0.757277,-9.712969
1880075,1761934014341576,-0.000147,-0.001899,-0.002138,-0.810967,-0.757286,-9.714556
1884255,1761934014345755,0.003552,-0.000632,-0.003365,-0.798192,-0.760417,-9.733697
1895452,1761934014356953,0.001082,-0.004739,0.001128,-0.801430,-0.752477,-9.716208
1899610,1761934014361110,0.000291,-0.002675,0.000711,-0.796688,-0.741328,-9.716198
1903756,1761934014365257,-0.003096,0.004242,-0.000102,-0.803019,-0.752437,-9.720972
1918987,1761934014380488,-0.000180,-0.000663,-0.000504,-0.791805,-0.770033,-9.720948
1919008,1761934014380509,0.001096,-0.002272,0.002769,-0.799840,-0.754078,-9.714565
1919012,1761934014380513,-0.001770,-0.003946,-0.002149,-0.791758,-0.771504,-9.738474
1920453,1761934014381954,0.000263,-0.000657,0.000725,-0.801448,-0.752424,-9.725737
1924627,1761934014386128,-0.002198,-0.000652,-0.002158,-0.804609,-0.747683,-9.727331
1935657,1761934014397158,0.000242,0.000158,-0.002551,-0.799797,-0.757221,-9.727351
1939807,1761934014401308,0.001463,0.001409,-0.001732,-0.801436,-0.755632,-9.709830
1943984,1761934014405484,0.003916,-0.000222,-0.002537,-0.788604,-0.760353,-9.735279
1948155,1761934014409656,-0.001396,-0.002302,-0.004604,-0.791806,-0.758754,-9.732092
1950881,1761934014412382,0.005521,0.002657,-0.001709,-0.804497,-0.773150,-9.727337
1955173,1761934014416673,-0.001831,0.002197,-0.000096,-0.807739,-0.765199,-9.725749
1959324,1761934014420825,0.001119,-0.003513,0.000311,-0.798229,-0.752530,-9.717787
1970383,1761934014431884,0.002673,0.002232,-0.000497,-0.795015,-0.755574,-9.730513
1974530,1761934014436031,-0.003422,0.002595,-0.002968,-0.804634,-0.752493,-9.709826
1978697,1761934014440198,-0.002978,-0.003113,0.000288,-0.788645,-0.761915,-9.725756
1981426,1761934014442926,-0.002601,-0.001499,-0.003383,-0.804559,-0.763649,-9.719362
1985581,1761934014447082,0.002308,0.000178,0.001135,-0.788677,-0.760441,-9.714598
1989738,1761934014451239,-0.000986,0.001380,-0.001737,-0.804584,-0.754070,-9.727369
1993888,1761934014455389,0.000279,-0.001866,-0.000107,-0.799827,-0.746134,-9.720974
2005104,1761934014466605,0.002689,-0.000628,-0.001323,-0.793461,-0.752430,-9.719389
2009267,1761934014470768,0.000618,-0.001049,-0.001324,-0.807805,-0.752469,-9.716190
2012001,1761934014473502,-0.003012,-0.003539,-0.001748,-0.804605,-0.744543,-9.724140
2016200,1761934014477701,0.001042,0.002237,-0.003367,-0.793480,-0.742866,-9.722544
2020350,1761934014481851,-0.002142,-0.004351,-0.004210,-0.795005,-0.757205,-9.722574
2024525,1761934014486026,-0.003411,-0.003544,-0.002154,-0.790292,-0.752445,-9.706648
2027380,1761934014488881,-0.000629,0.003839,-0.001736,-0.793438,-0.758781,-9.725765
2039700,1761934014501201,-0.003422,-0.004363,-0.000519,-0.806102,-0.771603,-9.728901
2042592,1761934014504092,0.002339,-0.003916,-0.001322,-0.796612,-0.741335,-9.735270
2046741,1761934014508241,-0.003474,0.002182,-0.000920,-0.799808,-0.749339,-9.733664
2064676,1761934014526177,-0.000572,0.002617,-0.000099,-0.798272,-0.750875,-9.717810
2064685,1761934014526186,0.001105,-0.001451,0.001944,-0.787035,-0.766658,-9.722542
2064689,1761934014526190,-0.003014,0.000550,-0.003378,-0.802966,-0.761998,-9.740050
2064693,1761934014526194,-0.005014,-0.002734,-0.002983,-0.810947,-0.746134,-9.727321
2068990,1761934014530491,-0.005067,-0.000701,0.001119,-0.806144,-0.760463,-9.720972
2073135,1761934014534636,-0.000557,-0.001469,-0.002148,-0.799812,-0.744464,-9.730517
2077172,1761934014538672,-0.001398,-0.001080,-0.001327,-0.796646,-0.750871,-9.724160
2086901,1761934014548402,-0.002185,-0.002289,-0.001343,-0.793384,-0.765164,-9.740049
2091077,1761934014552578,0.003178,-0.006768,-0.001736,-0.809246,-0.770054,-9.741614
2095240,1761934014556741,-0.000175,-0.001895,-0.002960,-0.809275,-0.773225,-9.735233
2106424,1761934014567925,0.000234,-0.001061,-0.000093,-0.783834,-0.773033,-9.738452
2110588,1761934014572089,-0.002199,-0.001081,-0.002152,-0.787007,-0.768298,-9.744806
2113293,1761934014574793,-0.000168,-0.000243,-0.002148,-0.804634,-0.750875,-9.730518
2117486,1761934014578987,0.000666,-0.001878,-0.001733,-0.790320,-0.749216,-9.722564
2121637,1761934014583137,-0.005066,0.000957,-0.001339,-0.796561,-0.761983,-9.735304
2125796,1761934014587297,-0.000614,0.000179,-0.000109,-0.791818,-0.755609,-9.738472
2128668,1761934014590169,0.000269,-0.001470,-0.001329,-0.810939,-0.755646,-9.724154
2141019,1761934014602520,0.001887,-0.000253,-0.002130,-0.799755,-0.765187,-9.728914
2143906,1761934014605407,-0.001414,0.000158,-0.005012,-0.801331,-0.769991,-9.732077
2148022,1761934014609523,0.001081,-0.001061,-0.002546,-0.804571,-0.752406,-9.736900
2152183,1761934014613684,0.002700,0.002228,-0.004990,-0.798272,-0.744490,-9.722533
2156362,1761934014617863,-0.000139,-0.002270,-0.002565,-0.803007,-0.757268,-9.724162
2159076,1761934014620576,-0.005489,-0.000265,-0.002165,-0.804634,-0.746178,-9.709777
2163238,1761934014624738,0.000697,-0.000225,-0.004194,-0.798184,-0.763524,-9.732115
2174433,1761934014635934,-0.002170,-0.000247,-0.002566,-0.793437,-0.761957,-9.720949
2178594,1761934014640095,0.000662,-0.001468,-0.001734,-0.804614,-0.746140,-9.725739
2182767,1761934014644268,-0.004253,0.002587,-0.000517,-0.798269,-0.744436,-9.728936
2186900,1761934014648400,0.002707,-0.000218,-0.001321,-0.801372,-0.758695,-9.730536
2189631,1761934014651132,-0.001802,-0.001487,0.002352,-0.798189,-0.763596,-9.719360
2193777,1761934014655278,-0.001815,0.000956,-0.000917,-0.803015,-0.755600,-9.720973
2199806,1761934014661307,0.003131,-0.003917,0.002365,-0.801452,-0.746107,-9.725744
2209129,1761934014670630,0.002300,-0.001047,-0.001728,-0.806176,-0.754173,-9.722540
2213319,1761934014674820,-0.002624,-0.000263,0.001943,-0.794978,-0.757235,-9.738484
2217496,1761934014678997,0.000631,0.000990,-0.000502,-0.793398,-0.757218,-9.730499
2220206,1761934014681706,-0.002600,-0.002719,-0.002566,-0.804612,-0.747762,-9.717758
2224384,1761934014685884,-0.001016,-0.000668,0.000313,-0.796602,-0.758844,-9.730482
2242405,1761934014703906,0.002668,0.001797,0.003198,-0.796597,-0.760416,-9.733686
2242418,1761934014703919,0.003122,-0.001037,-0.002954,-0.796627,-0.752480,-9.728914
2242423,1761934014703923,0.001894,-0.000641,0.001954,-0.804600,-0.746112,-9.736877
2242427,1761934014703927,-0.003020,-0.001082,-0.001332,-0.788668,-0.747585,-9.733684
2254899,1761934014716400,0.003148,-0.004317,0.000722,-0.796614,-0.754097,-9.720954
2257627,1761934014719128,-0.003027,-0.002741,0.002351,-0.798214,-0.750893,-9.725718
2275759,1761934014737260,0.000278,-0.003106,0.000718,-0.787045,-0.754026,-9.728919
2275773,1761934014737274,0.000285,-0.001053,-0.004199,-0.790186,-0.766756,-9.732079
2275777,1761934014737278,-0.002204,0.001791,-0.003384,-0.795012,-0.755609,-9.732097
2275781,1761934014737282,-0.001440,-0.000681,-0.002141,-0.809376,-0.747722,-9.732113
2279930,1761934014741431,-0.002201,-0.002711,-0.003794,-0.798224,-0.750890,-9.727310
2284090,1761934014745590,0.001465,-0.000631,-0.001728,-0.802929,-0.758759,-9.746447
2288251,1761934014749752,-0.003058,0.000971,0.001125,-0.802983,-0.755636,-9.727343
2299286,1761934014760787,0.000686,0.000997,-0.001329,-0.798299,-0.744445,-9.714649
2303442,1761934014764943,0.000204,0.002621,-0.000912,-0.782325,-0.746015,-9.722548
2306308,1761934014767809,-0.003431,-0.000673,-0.002975,-0.801464,-0.749283,-9.716200
2310356,1761934014771857,-0.000175,-0.001064,0.002355,-0.796603,-0.762059,-9.717741
2314520,1761934014776021,0.001843,0.003828,-0.000900,-0.785578,-0.746074,-9.706657
2318678,1761934014780179,-0.000154,-0.003118,-0.000510,-0.799851,-0.747695,-9.724158
2321524,1761934014783025,-0.001408,-0.001494,-0.001327,-0.788720,-0.742910,-9.728930
2334037,1761934014795538,-0.004263,-0.001091,-0.004206,-0.793404,-0.755613,-9.741652
2336766,1761934014798267,-0.003014,0.001389,-0.004204,-0.787054,-0.741263,-9.752777
2340917,1761934014802418,0.000689,-0.001464,-0.002554,-0.788644,-0.754019,-9.736869
2345098,1761934014806599,-0.003785,-0.005588,-0.002984,-0.796576,-0.766743,-9.735285
2349251,1761934014810752,-0.001790,-0.001474,-0.000922,-0.804588,-0.750848,-9.727329
2352137,1761934014813637,0.003938,-0.002678,-0.002544,-0.804609,-0.757245,-9.722555
2356297,1761934014817798,-0.004267,0.001366,-0.002970,-0.806177,-0.741326,-9.738466
2367307,1761934014828808,-0.000995,0.001782,-0.003368,-0.798271,-0.744421,-9.724196
2371474,1761934014832974,-0.001002,0.000991,-0.002559,-0.790183,-0.760430,-9.741598
2375624,1761934014837125,0.001049,0.000597,-0.005419,-0.801348,-0.754108,-9.743208
2379781,1761934014841282,-0.001379,-0.000249,-0.001743,-0.785491,-0.762006,-9.717772
2382637,1761934014844137,0.001913,-0.000220,-0.005011,-0.809301,-0.763629,-9.727340
2386740,1761934014848241,-0.001368,0.000159,-0.001736,-0.807751,-0.752532,-9.730491
2390911,1761934014852412,0.000207,0.003831,-0.001726,-0.793401,-0.766757,-9.725741
2402089,1761934014863590,0.000239,0.000176,0.002351,-0.790225,-0.761902,-9.717821
2408959,1761934014870459,-0.000541,-0.002293,-0.004607,-0.793443,-0.749261,-9.720979
2413109,1761934014874609,-0.000527,-0.006802,-0.000920,-0.798143,-0.768338,-9.735269
2424307,1761934014885807,-0.002633,-0.001091,0.000308,-0.804598,-0.752509,-9.719368
2428458,1761934014889959,-0.001422,0.002598,-0.000504,-0.791872,-0.757224,-9.728930
2432640,1761934014894140,0.001488,-0.000658,-0.001729,-0.772775,-0.741176,-9.730529
2435342,1761934014896843,0.000638,0.000987,-0.000911,-0.791862,-0.760433,-9.720961
2453381,1761934014914882,-0.003837,-0.000274,0.001530,-0.794991,-0.763585,-9.732091
2453390,1761934014914891,-0.002994,-0.002315,-0.001336,-0.801399,-0.754045,-9.717771
2453394,1761934014914895,-0.004285,0.001362,-0.001331,-0.790249,-0.757174,-9.727317
2453399,1761934014914899,-0.001818,0.000972,-0.002962,-0.791754,-0.771624,-9.733681
2457582,1761934014919083,0.001108,-0.002684,-0.003375,-0.798156,-0.768428,-9.727318
2468627,1761934014930128,0.002280,0.001014,-0.000915,-0.810912,-0.765281,-9.732066
2472782,1761934014934283,0.000276,0.000167,-0.000508,-0.801396,-0.750811,-9.732093
2476936,1761934014938437,-0.001357,-0.003519,-0.001753,-0.785530,-0.750810,-9.719382
2481087,1761934014942588,0.001439,0.000156,-0.001316,-0.807864,-0.746122,-9.716202
2483997,1761934014945497,-0.001788,0.000173,-0.001338,-0.803059,-0.747666,-9.717795
2488145,1761934014949646,0.001065,0.001391,-0.002957,-0.794966,-0.758853,-9.738440
2492309,1761934014953810,-0.001806,0.002604,-0.005829,-0.802970,-0.754086,-9.720940
2503365,1761934014964866,-0.001744,-0.003119,-0.002159,-0.788688,-0.754043,-9.716187
2507510,1761934014969011,-0.004259,0.000541,-0.003381,-0.787008,-0.765112,-9.732121
2511713,1761934014973214,-0.002633,-0.002323,-0.001334,-0.793449,-0.750785,-9.735319
2514428,1761934014975929,-0.000991,-0.002705,0.003173,-0.803043,-0.760356,-9.714661
2518596,1761934014980097,-0.000966,-0.005582,-0.001740,-0.790290,-0.752419,-9.724151
2527837,1761934014989338,-0.000949,-0.004756,-0.002562,-0.806275,-0.742959,-9.708232
2527859,1761934014989360,-0.001428,0.001364,-0.006233,-0.804606,-0.754092,-9.728881
2538035,1761934014999536,0.001060,-0.001889,-0.000089,-0.806174,-0.758892,-9.722530
2542230,1761934015003730,-0.003850,0.000137,0.001120,-0.810919,-0.762068,-9.724113
2544989,1761934015006490,0.001464,-0.000240,-0.001320,-0.814102,-0.763661,-9.722496
2549158,1761934015010659,-0.002618,-0.002713,0.001125,-0.802968,-0.766844,-9.730484
2553372,1761934015014873,0.000633,-0.001064,-0.005419,-0.809340,-0.757272,-9.730501
2557567,1761934015019068,0.000284,-0.003112,-0.003375,-0.804644,-0.747702,-9.722607
2560306,1761934015021806,-0.002230,0.002606,-0.000102,-0.810996,-0.752459,-9.716178
2572733,1761934015034234,-0.000958,-0.003527,-0.002971,-0.804510,-0.762036,-9.730499
2575475,1761934015036976,0.000673,-0.001887,-0.002958,-0.814099,-0.750940,-9.746431
2579663,1761934015041164,0.000288,-0.003521,-0.000922,-0.801386,-0.746113,-9.741616
2597740,1761934015059241,-0.001418,-0.000664,0.001534,-0.785388,-0.766751,-9.740025
2597755,1761934015059256,-0.001797,-0.000252,-0.002972,-0.807715,-0.768400,-9.735274
2597760,1761934015059260,-0.002620,0.001373,0.000308,-0.809353,-0.766870,-9.711370
2597764,1761934015059264,-0.001800,-0.001071,-0.002558,-0.801369,-0.757238,-9.720955
2601908,1761934015063409,-0.003467,0.001790,-0.005431,-0.794995,-0.765184,-9.719330
2606055,1761934015067556,-0.001806,0.004677,-0.000927,-0.801447,-0.758850,-9.708246
2619963,1761934015081464,-0.000557,-0.001875,-0.002146,-0.804602,-0.760457,-9.711410
2624153,1761934015085654,0.001086,-0.001455,-0.001331,-0.783899,-0.755602,-9.717775
2635183,1761934015096683,-0.001797,0.002209,-0.002966,-0.779091,-0.758794,-9.720935
2639336,1761934015100837,-0.001003,0.000159,-0.003375,-0.803002,-0.750876,-9.730502
2643503,1761934015105004,-0.000156,-0.002294,-0.003371,-0.788712,-0.752389,-9.727340
2646367,1761934015107868,0.001433,0.001398,-0.002135,-0.818924,-0.758936,-9.712978
2650532,1761934015112033,0.002309,-0.002256,-0.002962,-0.806262,-0.746175,-9.706637
2654690,1761934015116190,-0.001799,-0.002703,-0.000106,-0.798250,-0.750867,-9.724154
2658851,1761934015120351,-0.000962,-0.002290,-0.002152,-0.807760,-0.758904,-9.725706
2669899,1761934015131399,-0.001381,-0.000661,-0.001742,-0.801413,-0.755597,-9.724155
2674047,1761934015135548,0.001063,-0.003108,-0.002960,-0.815787,-0.752476,-9.706656
2676792,1761934015138293,-0.001410,-0.001464,-0.003785,-0.795071,-0.739725,-9.727329
2681099,1761934015142599,0.000246,-0.001482,-0.001730,-0.801432,-0.746058,-9.720949
2685261,1761934015146762,-0.000152,-0.000667,0.001135,-0.799813,-0.750819,-9.730516
2689419,1761934015150920,-0.001377,-0.002710,-0.000922,-0.790285,-0.744511,-9.724144
2692148,1761934015153648,0.001885,-0.001853,-0.003783,-0.787089,-0.754046,-9.725739
2704696,1761934015166197,-0.005882,-0.002334,0.002338,-0.796601,-0.750883,-9.741629
2707386,1761934015168886,-0.003388,-0.001893,-0.000113,-0.782350,-0.741285,-9.722543
2711595,1761934015173095,0.000649,-0.001055,-0.000103,-0.785443,-0.758806,-9.728880
2715783,1761934015177284,-0.002611,-0.000659,-0.001342,-0.785470,-0.757176,-9.728901
2719955,1761934015181456,0.002712,-0.003091,-0.005415,-0.787076,-0.758763,-9.713037
2722692,1761934015184193,0.001850,0.000983,0.000731,-0.795026,-0.755578,-9.727320
2726824,1761934015188325,0.002278,0.000984,-0.004182,-0.788746,-0.742868,-9.714602
2737894,1761934015199394,-0.005524,0.001360,-0.005024,-0.777570,-0.757136,-9.711435
2742067,1761934015203568,-0.000972,-0.000254,-0.002145,-0.804553,-0.758907,-9.722502
2746223,1761934015207724,-0.003017,-0.003533,-0.002163,-0.807756,-0.750859,-9.736897
2750388,1761934015211889,0.000242,-0.001877,-0.003374,-0.798165,-0.760369,-9.740040
2753263,1761934015214763,-0.003434,-0.001076,-0.002568,-0.782304,-0.755576,-9.728941
2757416,1761934015218917,-0.003006,0.000543,-0.002562,-0.793448,-0.757246,-9.724146
2775445,1761934015236945,0.001421,-0.000636,-0.005002,-0.791943,-0.750855,-9.705050
2775521,1761934015237022,0.001900,-0.001046,-0.003780,-0.804636,-0.739769,-9.716186
2775525,1761934015237026,-0.000603,0.001386,-0.003368,-0.785537,-0.750840,-9.719398
2783685,1761934015245185,0.003084,-0.000228,-0.001320,-0.791908,-0.752470,-9.713005
2786506,1761934015248006,-0.004643,-0.002719,-0.004211,-0.779088,-0.765162,-9.730514
2790679,1761934015252180,-0.001000,-0.001083,-0.000509,-0.791831,-0.757250,-9.727317
2808736,1761934015270237,0.000696,-0.001447,-0.000520,-0.790273,-0.746074,-9.736849
2808744,1761934015270244,0.002277,0.001411,-0.000499,-0.798215,-0.757301,-9.725679
2808748,1761934015270248,-0.002233,-0.000672,0.000714,-0.810916,-0.761976,-9.736901
2808752,1761934015270252,0.000599,0.002210,0.002778,-0.791863,-0.749261,-9.720928
2812879,1761934015274380,-0.002224,0.001775,0.001951,-0.803041,-0.750832,-9.719355
2817008,1761934015278509,-0.004233,-0.003944,-0.002167,-0.793424,-0.763582,-9.719332
2828122,1761934015289623,-0.003826,-0.003136,-0.002567,-0.811033,-0.744508,-9.714615
2832250,1761934015293751,0.000237,0.002212,-0.002144,-0.802999,-0.758889,-9.720968
2836414,1761934015297915,0.001854,0.002199,-0.001308,-0.814142,-0.758879,-9.725768
2839288,1761934015300789,-0.002194,-0.002307,0.000302,-0.798197,-0.755670,-9.728914
2843444,1761934015304945,0.003172,-0.003079,-0.001323,-0.803001,-0.747685,-9.735279
2847572,1761934015309072,-0.001019,0.002212,-0.002961,-0.801443,-0.747702,-9.722560
2851695,1761934015313196,-0.003867,0.001383,-0.004613,-0.790308,-0.744464,-9.725714
2862856,1761934015324357,-0.002999,-0.002726,-0.000926,-0.801433,-0.747729,-9.720950
2866987,1761934015328488,0.000629,0.001805,-0.005000,-0.788671,-0.755580,-9.725722
2869847,1761934015331348,0.001442,-0.001040,-0.002961,-0.801403,-0.760474,-9.728865
2873979,1761934015335479,-0.002627,-0.001490,0.000714,-0.804556,-0.765271,-9.722529
2878127,1761934015339627,0.000226,0.000161,0.001957,-0.793410,-0.762010,-9.725708
2882254,1761934015343754,-0.002217,-0.001477,-0.003794,-0.801437,-0.757303,-9.709812
2885113,1761934015346614,-0.000176,0.001811,-0.002557,-0.802934,-0.781148,-9.712981
2897499,1761934015359000,0.001949,-0.005552,-0.000513,-0.818892,-0.762030,-9.725754
2900360,1761934015361861,-0.000959,-0.000244,-0.001335,-0.799866,-0.754042,-9.724121
2904497,1761934015365998,0.000254,0.000161,-0.000504,-0.807764,-0.749266,-9.738494
2908701,1761934015370201,0.000275,-0.005984,-0.003782,-0.795013,-0.758684,-9.740081
2912848,1761934015374349,0.000637,-0.002712,0.001136,-0.807772,-0.755649,-9.732123
2915556,1761934015377057,-0.000561,-0.001070,-0.000919,-0.796596,-0.761975,-9.736873
2919685,1761934015381186,0.000680,-0.001448,0.001533,-0.787057,-0.752401,-9.730498
2930799,1761934015392300,-0.001007,0.001794,-0.000918,-0.802943,-0.761966,-9.735312
2935085,1761934015396586,-0.001764,-0.002701,-0.003383,-0.801487,-0.747718,-9.708281
2953011,1761934015414512,-0.003407,-0.002716,0.003573,-0.807800,-0.755712,-9.716185
2953024,1761934015414525,-0.000954,-0.001056,-0.000107,-0.798225,-0.750915,-9.719372
2957307,1761934015418808,-0.001375,-0.003127,0.001943,-0.801394,-0.760479,-9.722548
2961434,1761934015422935,-0.000568,-0.000244,-0.003377,-0.798151,-0.760384,-9.733707
2964136,1761934015425637,-0.002195,0.001383,-0.002972,-0.802931,-0.766804,-9.728873
2968263,1761934015429764,0.003482,0.001000,-0.000899,-0.798275,-0.750814,-9.716249
2986371,1761934015447872,-0.001815,-0.000259,-0.001329,-0.790267,-0.752408,-9.725731
2986379,1761934015447880,-0.001423,0.001785,-0.001324,-0.799847,-0.757194,-9.716196
2986384,1761934015447884,-0.000145,-0.000236,0.000304,-0.809316,-0.750868,-9.740039
2986387,1761934015447888,-0.001420,-0.001090,-0.001323,-0.806149,-0.747630,-9.732098
2998922,1761934015460422,-0.001775,-0.001901,0.000718,-0.795039,-0.757243,-9.717788
3001622,1761934015463123,0.000294,-0.004346,-0.003785,-0.796644,-0.746091,-9.722559
3005898,1761934015467399,-0.001796,-0.001503,-0.001733,-0.818926,-0.744597,-9.728909
3010037,1761934015471538,0.000699,-0.003937,-0.001737,-0.812511,-0.757251,-9.728910
3014177,1761934015475678,-0.003024,-0.001096,0.005215,-0.796598,-0.754074,-9.733653
3016945,1761934015478446,0.002262,0.002621,0.001963,-0.796597,-0.752469,-9.730480
3021073,1761934015482574,-0.005538,0.003797,0.001539,-0.785410,-0.765153,-9.736862
3032194,1761934015493695,-0.003079,0.002611,-0.002968,-0.803012,-0.744532,-9.725737
3036323,1761934015497823,-0.002215,0.002188,0.001946,-0.791895,-0.744528,-9.722586
3040452,1761934015501953,-0.001002,0.000154,0.000313,-0.777511,-0.760407,-9.732088
3044737,1761934015506237,-0.003025,-0.004366,-0.001333,-0.798201,-0.758859,-9.722534
3047436,1761934015508937,0.001054,0.000167,-0.000914,-0.798199,-0.762009,-9.719364
3051563,1761934015513063,0.001836,0.002631,-0.004588,-0.799827,-0.752490,-9.722555
3055849,1761934015517349,0.002691,-0.001458,-0.004180,-0.795054,-0.747695,-9.730522
3066957,1761934015528458,0.001107,-0.003099,-0.004193,-0.788714,-0.749295,-9.719378
3071085,1761934015532586,0.000664,-0.003520,-0.000503,-0.791783,-0.763605,-9.733669
3075231,1761934015536732,-0.003816,-0.001495,0.001115,-0.806134,-0.761998,-9.733717
3077933,1761934015539434,-0.003015,-0.001487,-0.002566,-0.783877,-0.757134,-9.733714
3082219,1761934015543720,-0.000966,-0.001892,-0.001333,-0.783961,-0.752436,-9.708256
3086374,1761934015547875,0.002677,0.000209,-0.000506,-0.793452,-0.758800,-9.722587
3090507,1761934015552008,0.002720,-0.001452,-0.003779,-0.799785,-0.752464,-9.740017
3101615,1761934015563116,0.001063,0.000569,-0.002541,-0.791786,-0.755675,-9.743240
3105742,1761934015567243,-0.001805,0.000531,-0.005418,-0.796613,-0.753984,-9.733748
3108601,1761934015570102,-0.002235,0.000969,-0.004198,-0.796582,-0.761984,-9.730492
3112729,1761934015574230,-0.000989,-0.002300,-0.002555,-0.796601,-0.758829,-9.733652
3122421,1761934015583922,-0.001763,-0.001083,-0.000921,-0.796597,-0.765215,-9.714587
3123854,1761934015585354,-0.000577,-0.001465,-0.002153,-0.788715,-0.755649,-9.712994
3126553,1761934015588054,-0.000168,-0.000666,-0.000915,-0.793505,-0.747644,-9.727345
3130713,1761934015592214,0.001842,-0.000246,-0.000498,-0.796585,-0.760420,-9.736893
3134849,1761934015596350,-0.000169,-0.000236,-0.002550,-0.807741,-0.758841,-9.732059
3145972,1761934015607473,0.000264,-0.003910,-0.002561,-0.787102,-0.754001,-9.717784
3152956,1761934015614457,-0.001373,-0.003126,-0.002556,-0.787105,-0.746062,-9.725748
3164068,1761934015625569,0.000674,0.000174,-0.002142,-0.796630,-0.762033,-9.717788
3168194,1761934015629695,-0.003007,-0.000261,-0.002972,-0.798253,-0.758789,-9.719404
3172321,1761934015633822,-0.000948,-0.002291,-0.001737,-0.815780,-0.752603,-9.714581
3176607,1761934015638108,0.001450,0.000575,-0.000500,-0.801464,-0.750902,-9.709836
3179308,1761934015640809,0.000681,-0.000231,-0.000509,-0.802925,-0.770037,-9.728881
3183447,1761934015644948,-0.001405,0.000571,-0.000107,-0.796664,-0.739655,-9.735286
3187575,1761934015649076,-0.003042,-0.001495,-0.002143,-0.796639,-0.747651,-9.738478
3198728,1761934015660229,-0.000161,-0.000250,-0.001736,-0.796633,-0.749239,-9.727336
3202864,1761934015664364,0.000189,0.005484,-0.001314,-0.806131,-0.765247,-9.724144
3207003,1761934015668504,-0.001794,-0.000658,0.002352,-0.809326,-0.763675,-9.714611
3209871,1761934015671372,-0.001006,-0.001496,0.000721,-0.812541,-0.763653,-9.720959
3214007,1761934015675507,-0.000159,-0.001879,0.000309,-0.796587,-0.762052,-9.727305
3218161,1761934015679662,0.001842,0.002629,0.001557,-0.795005,-0.757244,-9.740049
3222295,1761934015683796,0.004288,0.001823,-0.000482,-0.798157,-0.754105,-9.740013
3233415,1761934015694916,0.000662,-0.000642,0.000308,-0.790200,-0.752366,-9.738490
3237547,1761934015699048,-0.000607,-0.000689,-0.001721,-0.795051,-0.747677,-9.727345
3240411,1761934015701912,-0.002592,-0.001496,-0.002974,-0.787110,-0.750864,-9.719378
3244537,1761934015706038,-0.002658,0.002603,-0.002150,-0.787084,-0.744395,-9.725764
3248664,1761934015710164,-0.000963,-0.003109,-0.002974,-0.795067,-0.752447,-9.722578
3252951,1761934015714451,-0.004621,-0.004784,-0.000116,-0.798213,-0.757207,-9.736914
3255651,1761934015717152,0.000651,-0.000236,0.000316,-0.801391,-0.763635,-9.730488
3268199,1761934015729700,-0.000151,-0.003107,-0.006651,-0.783906,-0.752395,-9.720962
3270899,1761934015732400,0.000656,0.002648,-0.002554,-0.791876,-0.757171,-9.719377
3275028,1761934015736528,-0.000184,0.000159,-0.000094,-0.796638,-0.752473,-9.727309
3279216,1761934015740717,-0.000963,-0.001070,-0.002558,-0.798200,-0.758867,-9.732058
3283343,1761934015744844,-0.001785,-0.003528,-0.000924,-0.795083,-0.741264,-9.725750
3286203,1761934015747704,0.000652,0.000168,-0.003373,-0.788640,-0.769981,-9.716154
3290332,1761934015751833,0.000710,-0.005150,-0.002561,-0.799765,-0.757226,-9.728878
3298748,1761934015760248,-0.001418,-0.002327,-0.000090,-0.796600,-0.757196,-9.738476
3301449,1761934015762950,-0.002591,-0.003532,-0.002157,-0.790264,-0.763491,-9.727363
3312569,1761934015774069,-0.000182,-0.001046,-0.000511,-0.796554,-0.763659,-9.733688
3316696,1761934015778197,-0.000151,-0.000233,-0.002562,-0.795008,-0.749268,-9.727336
3319555,1761934015781056,-0.000161,0.000175,-0.000915,-0.799798,-0.760454,-9.717785
3323682,1761934015785183,0.001481,-0.001871,-0.002143,-0.806141,-0.776427,-9.709826
3341761,1761934015803262,-0.005485,0.000127,-0.000109,-0.809373,-0.750914,-9.735320
3341769,1761934015803270,-0.001810,0.000553,0.002767,-0.780703,-0.755563,-9.727346
3341773,1761934015803274,-0.001378,-0.000250,-0.000103,-0.801389,-0.769939,-9.720947
3341777,1761934015803278,0.000260,0.000578,-0.000914,-0.810935,-0.754049,-9.740076
3345902,1761934015807402,0.001847,-0.000242,-0.000909,-0.782363,-0.744436,-9.720954
3350028,1761934015811529,-0.002613,-0.001091,-0.002152,-0.804548,-0.760454,-9.724132
3361149,1761934015822650,0.000273,0.000189,-0.005425,-0.804578,-0.768430,-9.706627
3365275,1761934015826776,-0.001803,-0.000229,0.001114,-0.795110,-0.749228,-9.717789
3369401,1761934015830902,0.002293,0.001414,-0.000909,-0.804600,-0.758854,-9.719379
3372261,1761934015833762,-0.001780,-0.002298,-0.000519,-0.794989,-0.760381,-9.736893
3376388,1761934015837889,0.000223,0.001809,-0.004602,-0.783903,-0.747594,-9.725734
3380516,1761934015842017,-0.002193,-0.004773,0.000304,-0.796615,-0.754058,-9.728914
3384801,1761934015846302,0.000664,-0.000226,-0.001333,-0.791927,-0.744511,-9.716196
3395913,1761934015857414,-0.001808,0.002609,-0.000513,-0.803015,-0.749300,-9.727324
3400039,1761934015861540,-0.001807,-0.000678,0.001540,-0.804574,-0.760407,-9.725748
3402751,1761934015864252,0.000212,0.001800,-0.001320,-0.799796,-0.757275,-9.724167
3406878,1761934015868379,-0.001401,0.002619,-0.001329,-0.799719,-0.763616,-9.732098
3411162,1761934015872663,-0.000583,-0.000245,-0.000920,-0.804570,-0.750866,-9.738505
3415476,1761934015876977,-0.000571,0.001000,-0.004201,-0.796600,-0.755624,-9.736879
3418041,1761934015879542,-0.002622,0.001784,-0.003380,-0.799765,-0.758788,-9.738438
3430597,1761934015892098,-0.003042,0.000956,-0.003381,-0.785469,-0.753989,-9.733690
3433299,1761934015894800,-0.002676,0.003005,-0.002966,-0.788646,-0.758751,-9.740043
3437688,1761934015899188,-0.002617,0.000970,-0.001743,-0.796666,-0.749249,-9.722561
3441660,1761934015903161,-0.002222,0.001788,-0.007474,-0.795023,-0.761968,-9.728934
3445787,1761934015907287,-0.001006,-0.001902,0.000313,-0.795036,-0.755701,-9.725706
3448645,1761934015910146,-0.001379,-0.004777,-0.002965,-0.790340,-0.736489,-9.716206
3452773,1761934015914274,-0.000564,-0.003118,-0.002963,-0.817358,-0.744531,-9.727328
3463883,1761934015925384,0.001092,-0.001871,-0.000105,-0.803026,-0.750896,-9.727322
3468010,1761934015929511,-0.005508,-0.000306,-0.000101,-0.815746,-0.757262,-9.721018
3474992,1761934015936493,0.001904,-0.000223,-0.001734,-0.798189,-0.766765,-9.716182
3477705,1761934015939205,-0.001356,-0.003114,-0.005022,-0.822133,-0.747753,-9.725764
3481832,1761934015943332,-0.003882,0.001373,-0.000516,-0.806155,-0.750960,-9.732090
3486117,1761934015947617,-0.000571,-0.000245,-0.005010,-0.787085,-0.742887,-9.736872
3490244,1761934015951745,-0.004629,-0.000668,-0.005032,-0.795063,-0.750838,-9.717773
3492945,1761934015954446,0.000237,-0.003520,-0.000103,-0.796623,-0.750917,-9.720980
3497232,1761934015958733,-0.001794,-0.001072,-0.004201,-0.787029,-0.761995,-9.713024
3508334,1761934015969835,-0.005045,-0.003944,-0.001354,-0.806174,-0.757285,-9.719336
3512462,1761934015973962,-0.003805,0.000157,-0.004623,-0.802928,-0.760421,-9.733694
3516589,1761934015978090,0.000266,-0.000246,-0.003775,-0.795091,-0.742895,-9.725730
3527770,1761934015989271,-0.000166,-0.000663,0.000721,-0.796670,-0.741291,-9.727332
3531897,1761934015993397,0.001510,-0.003100,-0.000915,-0.812591,-0.742948,-9.725748
3534608,1761934015996108,-0.001825,-0.001088,-0.002553,-0.796609,-0.755607,-9.736859
3538735,1761934016000236,-0.005443,-0.001906,-0.001758,-0.795043,-0.746001,-9.740105
3543023,1761934016004524,0.002688,0.000989,0.002779,-0.796597,-0.750845,-9.741693
3547150,1761934016008651,0.001072,-0.000220,-0.003380,-0.796643,-0.754050,-9.720957
3549851,1761934016011352,0.000251,-0.001454,-0.002152,-0.804456,-0.781171,-9.736841
3562384,1761934016023885,-0.004234,-0.000670,0.001108,-0.801350,-0.771614,-9.733664
3565244,1761934016026744,0.001840,0.002227,-0.003364,-0.787035,-0.763627,-9.736853
3569373,1761934016030874,0.001894,-0.002264,-0.005006,-0.795045,-0.750885,-9.736872
3573516,1761934016035017,-0.001817,0.001795,-0.002149,-0.798172,-0.760394,-9.741627
3577644,1761934016039145,-0.000999,0.000568,-0.003786,-0.809316,-0.754117,-9.730494
3580503,1761934016042004,-0.000987,-0.000661,-0.001325,-0.809309,-0.763667,-9.725697
3584631,1761934016046131,0.001505,-0.005557,-0.002148,-0.787056,-0.755676,-9.733669
3595778,1761934016057279,0.000270,-0.001871,0.000306,-0.802945,-0.755636,-9.757591
3599908,1761934016061409,-0.002649,0.002614,-0.002560,-0.794985,-0.757232,-9.733658
3604034,1761934016065535,0.001046,0.001401,-0.005003,-0.810954,-0.754066,-9.724165
3608161,1761934016069662,0.000244,-0.000228,-0.001743,-0.796585,-0.765253,-9.719336
3611021,1761934016072521,-0.000135,-0.000235,-0.000103,-0.793409,-0.760431,-9.728895
3615148,1761934016076649,-0.003408,-0.001496,-0.002567,-0.793482,-0.749264,-9.724142
3619276,1761934016080777,-0.001779,-0.004359,-0.000514,-0.788668,-0.745996,-9.728947
3630387,1761934016091887,0.004362,-0.003921,-0.002951,-0.795047,-0.754006,-9.727314
3634514,1761934016096015,-0.001356,-0.006387,0.001525,-0.799803,-0.749280,-9.730494
3638802,1761934016100303,-0.003053,-0.001903,-0.004195,-0.798266,-0.747722,-9.713016
3641506,1761934016103007,-0.002189,-0.000655,-0.001752,-0.798196,-0.755634,-9.727323
3645635,1761934016107136,-0.005893,-0.000282,-0.001751,-0.788653,-0.757167,-9.730491
3663714,1761934016125215,0.002703,-0.002286,-0.002541,-0.793446,-0.752449,-9.717760
3663723,1761934016125224,-0.003427,-0.001097,-0.000922,-0.798205,-0.754048,-9.730523
3663727,1761934016125228,-0.003423,-0.000253,-0.001343,-0.801422,-0.742956,-9.728918
3663731,1761934016125232,-0.001352,-0.004753,-0.001337,-0.787092,-0.754049,-9.724129
3674837,1761934016136338,-0.004686,-0.000278,-0.002973,-0.799847,-0.744546,-9.717769
3678965,1761934016140466,-0.003023,-0.003551,0.000714,-0.796646,-0.747659,-9.714587
3697059,1761934016158560,-0.000953,0.000998,-0.000520,-0.793407,-0.755624,-9.744827
3697076,1761934016158577,-0.000968,-0.001067,-0.002146,-0.798201,-0.760417,-9.727351
3703808,1761934016165309,-0.001377,-0.003116,0.002352,-0.807762,-0.760457,-9.720961
3705414,1761934016166915,0.000217,-0.000242,-0.000909,-0.798212,-0.763634,-9.720922
3709590,1761934016171090,-0.001773,-0.002714,0.001122,-0.798193,-0.750887,-9.727328
3712376,1761934016173877,-0.000997,0.000975,0.001945,-0.812489,-0.758889,-9.730492
3716523,1761934016178023,0.001476,0.000178,0.002773,-0.801374,-0.755636,-9.738429
3720663,1761934016182164,-0.000566,-0.001070,-0.000920,-0.807760,-0.760457,-9.724176
3731692,1761934016193192,0.001476,-0.000243,-0.003362,-0.801439,-0.747688,-9.730548
3735849,1761934016197350,-0.000999,0.002203,-0.000915,-0.801324,-0.768367,-9.744811
3740051,1761934016201552,0.000696,0.000587,-0.003377,-0.790268,-0.757164,-9.728979
3742765,1761934016204266,0.001100,-0.001459,-0.001736,-0.799815,-0.741339,-9.727335
3747053,1761934016208554,-0.001359,-0.001898,-0.001329,-0.788619,-0.762038,-9.727327
3751182,1761934016212683,0.001884,-0.003514,-0.001321,-0.796624,-0.754028,-9.720973
3755310,1761934016216811,-0.002233,0.001374,-0.001325,-0.804591,-0.757244,-9.713019
3766425,1761934016227925,-0.000998,0.000552,-0.000089,-0.795021,-0.755589,-9.730556
3770552,1761934016232053,-0.001748,-0.004365,-0.002560,-0.803060,-0.744446,-9.722565
3773412,1761934016234913,-0.000177,0.001391,-0.000505,-0.791916,-0.746058,-9.717784
3777552,1761934016239053,0.003956,-0.004312,-0.001320,-0.806155,-0.757301,-9.727331
3781754,1761934016243255,0.001891,-0.000222,-0.003371,-0.809332,-0.763674,-9.722508
3785885,1761934016247385,0.000275,0.001009,-0.003376,-0.790199,-0.771644,-9.717739
3788587,1761934016250088,0.001086,-0.002264,-0.001329,-0.790237,-0.752401,-9.738457
3801154,1761934016262655,0.000259,-0.003115,0.000306,-0.787135,-0.742838,-9.722576
3803855,1761934016265356,0.000651,-0.002704,0.000728,-0.799800,-0.749228,-9.736914
3808139,1761934016269640,-0.000964,-0.001082,0.001129,-0.793374,-0.763686,-9.717722
3812267,1761934016273767,-0.001004,0.001396,-0.000512,-0.790226,-0.762078,-9.720935
3816393,1761934016277894,0.001066,-0.000642,-0.001325,-0.796584,-0.768383,-9.725755
3819252,1761934016280753,0.001502,0.000998,-0.002146,-0.790210,-0.766804,-9.732080
3823379,1761934016284880,0.001087,-0.001866,-0.002556,-0.795056,-0.749337,-9.719352
3831657,1761934016293157,0.002718,-0.001450,-0.002142,-0.804608,-0.757308,-9.714611
3841385,1761934016302885,-0.000997,0.000575,-0.004602,-0.782322,-0.750836,-9.719376
3845522,1761934016307023,-0.004277,0.002185,-0.001747,-0.783897,-0.752430,-9.728892
3848385,1761934016309886,-0.003475,0.005460,-0.002962,-0.785505,-0.752409,-9.730498
3852515,1761934016314015,-0.001016,0.001788,-0.002139,-0.795054,-0.752533,-9.728889
3856656,1761934016318157,-0.001349,-0.004755,-0.000514,-0.790270,-0.762002,-9.714588
3874746,1761934016336247,-0.001363,-0.003103,-0.000520,-0.796573,-0.766789,-9.733702
3874760,1761934016336261,-0.000137,-0.000233,-0.002971,-0.782266,-0.758725,-9.735327
3874764,1761934016336264,0.000595,0.002227,-0.000095,-0.796535,-0.762069,-9.741607
3874768,1761934016336268,-0.000202,0.002215,-0.003372,-0.798104,-0.766808,-9.740013
3878895,1761934016340396,0.004361,-0.003075,0.001545,-0.818927,-0.750955,-9.724154
3890003,1761934016351503,-0.004219,-0.005187,-0.001753,-0.804618,-0.749293,-9.720985
3894139,1761934016355640,-0.001423,0.003443,0.000308,-0.795049,-0.752413,-9.717794
3898267,1761934016359768,0.001885,-0.001038,-0.000095,-0.796693,-0.754028,-9.713031
3902396,1761934016363897,0.001090,-0.004722,-0.003789,-0.803007,-0.760461,-9.716183
3905519,1761934016367020,-0.002249,0.001780,-0.002148,-0.795021,-0.773138,-9.712977
3909372,1761934016370873,0.001482,0.000583,0.000314,-0.793382,-0.769976,-9.722525
3913519,1761934016375019,-0.003398,-0.001077,-0.002159,-0.804561,-0.773143,-9.717821
3924640,1761934016386140,-0.003810,-0.002727,-0.001749,-0.791882,-0.744521,-9.732119
3928766,1761934016390267,-0.004656,0.000133,-0.005432,-0.798183,-0.763564,-9.732100
3933051,1761934016394552,-0.004211,-0.005190,0.001527,-0.790248,-0.750811,-9.730517
3935751,1761934016397252,-0.000631,0.004241,-0.004589,-0.793380,-0.758773,-9.741641
3939882,1761934016401382,-0.004616,-0.002310,-0.000533,-0.793445,-0.757213,-9.730517
3944167,1761934016405668,-0.003049,0.000964,-0.000926,-0.807758,-0.752464,-9.733742
3948294,1761934016409795,0.001429,0.000991,-0.001317,-0.796585,-0.760384,-9.732110
3959445,1761934016420946,0.000247,-0.001487,0.000720,-0.783955,-0.741201,-9.725744
3963575,1761934016425076,0.001038,-0.001875,-0.003779,-0.788759,-0.742892,-9.709814
3966276,1761934016427777,-0.000550,-0.004767,-0.004191,-0.804574,-0.754117,-9.719389
3970402,1761934016431903,-0.003451,-0.000694,-0.002965,-0.809365,-0.752537,-9.730506
3974688,1761934016436189,0.000640,0.001415,-0.003783,-0.804515,-0.771557,-9.730494
3978816,1761934016440316,0.000232,-0.000650,-0.000097,-0.798162,-0.766758,-9.717772
3981517,1761934016443018,0.001867,-0.000645,-0.001319,-0.806207,-0.765259,-9.713017
3994054,1761934016455555,-0.001427,0.002215,-0.002150,-0.798259,-0.747654,-9.724157
3996914,1761934016458415,0.000209,0.003036,-0.005414,-0.812553,-0.755649,-9.743269
4001041,1761934016462542,-0.000167,0.000997,-0.002966,-0.791878,-0.747632,-9.727367
4013568,1761934016475069,-0.001407,-0.001485,0.000723,-0.785447,-0.758791,-9.720937
4013584,1761934016475085,0.001928,-0.003096,-0.002143,-0.793396,-0.752437,-9.740072
4014858,1761934016476359,-0.001827,-0.000235,-0.002153,-0.794996,-0.768401,-9.722515
4018985,1761934016480486,-0.002623,-0.000256,-0.001336,-0.801389,-0.762066,-9.712989
4023181,1761934016484682,0.001494,0.002239,-0.002961,-0.791793,-0.763621,-9.724132
4026041,1761934016487541,-0.001776,-0.002703,-0.003793,-0.802981,-0.757204,-9.735306
4041225,1761934016502725,-0.003061,0.000953,0.001543,-0.803006,-0.757346,-9.709812
4045358,1761934016506859,0.003905,0.000182,-0.002120,-0.815739,-0.760531,-9.720953
4056464,1761934016517965,-0.001810,-0.000667,-0.005426,-0.806160,-0.763620,-9.725733
4060749,1761934016522250,0.002324,-0.003915,-0.002149,-0.794984,-0.757253,-9.740061
4064881,1761934016526382,-0.002639,0.000153,-0.001326,-0.795034,-0.752459,-9.714564
4067582,1761934016529083,-0.005047,-0.005613,0.002349,-0.787032,-0.769945,-9.732115
4071868,1761934016533369,-0.001825,0.000136,0.004411,-0.785496,-0.754090,-9.722515
4076005,1761934016537506,-0.001022,0.000139,-0.001314,-0.798190,-0.757276,-9.735271
4080151,1761934016541652,-0.004279,0.002581,-0.003381,-0.788653,-0.749206,-9.735281
4091171,1761934016552672,-0.000145,-0.001472,-0.001332,-0.799801,-0.758865,-9.720960
4095331,1761934016556832,0.005159,0.000624,-0.001727,-0.798210,-0.752423,-9.728902
4098210,1761934016559710,0.002261,0.004281,-0.003362,-0.796623,-0.742760,-9.746475
4102357,1761934016563858,-0.002615,0.002601,-0.001738,-0.799837,-0.746079,-9.733739
4106519,1761934016568020,0.000228,0.000575,-0.000510,-0.804539,-0.755661,-9.733676
4110664,1761934016572165,-0.002624,-0.000264,-0.002971,-0.802928,-0.765233,-9.727319
4113383,1761934016574883,-0.002227,-0.000274,-0.000912,-0.786999,-0.768394,-9.730479
4125997,1761934016587498,-0.003043,0.001778,-0.000504,-0.794988,-0.773211,-9.716122
4128700,1761934016590201,0.001479,-0.001888,0.001136,-0.783891,-0.762000,-9.717753
4132836,1761934016594337,0.003098,0.000179,-0.001721,-0.796646,-0.752402,-9.727322
4137044,1761934016598545,-0.002676,0.002170,-0.001320,-0.794982,-0.760390,-9.738434
4141180,1761934016602681,-0.000559,-0.001883,-0.000506,-0.806157,-0.754068,-9.743246
4144042,1761934016605542,-0.002581,-0.003547,0.001534,-0.798178,-0.755648,-9.735245
4148169,1761934016609669,-0.000173,-0.001895,0.001955,-0.799806,-0.765133,-9.722576
4159278,1761934016620778,-0.000994,-0.003545,0.000724,-0.806142,-0.760440,-9.725731
4163405,1761934016624906,-0.001756,-0.004354,0.000311,-0.799744,-0.758883,-9.738433
4167532,1761934016629032,-0.000545,-0.001897,-0.004599,-0.807712,-0.758822,-9.738476
4171657,1761934016633158,-0.001376,-0.001071,0.000716,-0.795019,-0.752422,-9.730514
4174516,1761934016636017,0.000702,-0.002685,-0.000516,-0.795009,-0.750886,-9.735297
4178644,1761934016640145,-0.000989,0.003842,-0.005827,-0.810925,-0.762040,-9.720945
4196725,1761934016658226,0.002725,-0.002268,-0.001727,-0.806150,-0.741330,-9.748011
4196734,1761934016658235,-0.000564,0.001389,0.001953,-0.807750,-0.747687,-9.743237
4196738,1761934016658239,0.000628,-0.000238,-0.004183,-0.801384,-0.760447,-9.728911
4203804,1761934016665305,-0.003414,0.000559,0.000709,-0.783894,-0.757181,-9.728922
4207787,1761934016669288,0.002669,0.000596,-0.000900,-0.799837,-0.747635,-9.728937
4211931,1761934016673431,-0.002163,-0.002310,-0.002153,-0.788688,-0.758836,-9.712962
4230039,1761934016691540,-0.005478,-0.000699,-0.000518,-0.788690,-0.758801,-9.727317
4230051,1761934016691552,0.001522,-0.004319,-0.002557,-0.791870,-0.754098,-9.719369
4230055,1761934016691556,0.000272,-0.003105,-0.000921,-0.804566,-0.758824,-9.725777
4230059,1761934016691560,-0.000575,-0.002321,-0.002956,-0.787042,-0.755563,-9.735271
4234185,1761934016695686,0.000687,0.000595,-0.002556,-0.806140,-0.765241,-9.727301
4238313,1761934016699814,-0.000550,-0.000242,-0.001743,-0.795004,-0.755587,-9.730505
4242567,1761934016704068,-0.000965,-0.000657,-0.002968,-0.810895,-0.768441,-9.733684
4253678,1761934016715178,-0.000616,0.003019,-0.001726,-0.802988,-0.760484,-9.727328
4257805,1761934016719305,0.004349,-0.003900,-0.001316,-0.795003,-0.766767,-9.733680
4260506,1761934016722007,-0.003831,-0.002735,-0.000928,-0.788682,-0.763612,-9.712974
4264791,1761934016726292,-0.004324,0.003817,-0.003378,-0.799819,-0.755631,-9.730522
4268919,1761934016730420,0.001883,-0.000216,-0.000513,-0.798190,-0.754022,-9.730492
4273047,1761934016734548,0.000267,-0.001854,-0.000927,-0.782264,-0.763562,-9.732092
4275906,1761934016737407,-0.001824,0.001793,0.000308,-0.788624,-0.760358,-9.741631
4288350,1761934016749851,0.001074,-0.000653,-0.006642,-0.804567,-0.762039,-9.719378
4291050,1761934016752551,0.000227,0.001815,-0.001739,-0.793470,-0.752452,-9.725732
4295337,1761934016756838,0.001878,-0.000238,-0.003367,-0.790279,-0.749217,-9.735253
4299465,1761934016760966,0.002736,-0.001856,-0.001321,-0.788741,-0.742813,-9.728939
4303594,1761934016765094,-0.000568,-0.002307,-0.000095,-0.803045,-0.758886,-9.714575
4306294,1761934016767795,0.001468,-0.000216,-0.001734,-0.796622,-0.765228,-9.717726
4310578,1761934016772078,-0.000989,0.001798,-0.002964,-0.812612,-0.742942,-9.719400
4321563,1761934016783064,-0.001398,-0.002726,-0.002554,-0.799830,-0.755655,-9.716196
4325849,1761934016787350,-0.003028,-0.000681,-0.001740,-0.790316,-0.753972,-9.717795
4329975,1761934016791476,0.001913,-0.000235,-0.002551,-0.799862,-0.750876,-9.720984
4334102,1761934016795603,0.002286,-0.002266,-0.004598,-0.796661,-0.752500,-9.725721
4336962,1761934016798462,0.000682,-0.003106,-0.001735,-0.798250,-0.754034,-9.722551
4341088,1761934016802589,-0.003385,-0.003951,-0.004204,-0.803043,-0.742972,-9.725737
4345216,1761934016806717,0.000262,-0.002697,-0.000507,-0.807761,-0.750866,-9.730560
4356324,1761934016817824,-0.000594,0.000154,-0.000913,-0.806206,-0.755600,-9.719418
4361881,1761934016823382,-0.002165,-0.005163,0.000293,-0.812578,-0.749318,-9.725763
4374414,1761934016835915,-0.002181,-0.000251,-0.000106,-0.798238,-0.757252,-9.717794
4377115,1761934016838616,-0.003053,0.001376,-0.001745,-0.796610,-0.755664,-9.720980
4381254,1761934016842754,-0.000178,0.000162,-0.002146,-0.804554,-0.757218,-9.727324
4385539,1761934016847040,-0.001813,-0.001468,-0.001333,-0.793383,-0.758813,-9.738441
4389673,1761934016851174,-0.001379,-0.002302,-0.000105,-0.804654,-0.741336,-9.711447
4392375,1761934016853875,-0.001788,0.000577,-0.003379,-0.791836,-0.755612,-9.736876
4396662,1761934016858163,-0.000991,-0.001495,-0.000918,-0.795015,-0.757243,-9.719317
4400791,1761934016862292,-0.000609,0.001793,-0.005003,-0.791867,-0.760457,-9.706603
4404918,1761934016866419,0.005961,0.001445,-0.003357,-0.785526,-0.744444,-9.727346
4407618,1761934016869119,-0.002200,-0.003539,0.001942,-0.803016,-0.752524,-9.724128
4411904,1761934016873404,-0.000971,-0.003112,-0.002561,-0.806080,-0.766849,-9.735252
4415987,1761934016877487,0.000301,-0.003520,0.001125,-0.788592,-0.761987,-9.736884
4420142,1761934016881643,-0.000567,-0.000247,-0.004200,-0.788614,-0.768384,-9.722555
4431266,1761934016892767,0.002691,-0.000641,0.003596,-0.809331,-0.760471,-9.730510
4435394,1761934016896895,-0.002235,0.004248,0.001947,-0.818909,-0.760434,-9.724146
4438253,1761934016899754,-0.002603,-0.003129,0.001532,-0.801330,-0.765245,-9.743242
4442380,1761934016903881,-0.003465,0.000139,-0.001332,-0.807718,-0.766813,-9.725719
4446509,1761934016908010,0.000244,-0.001073,-0.000913,-0.791842,-0.755596,-9.728912
4450794,1761934016912295,-0.000171,0.001809,-0.002965,-0.794999,-0.763598,-9.728914
4453494,1761934016914995,-0.004647,0.000143,-0.002164,-0.807728,-0.765157,-9.732107
4466042,1761934016927543,0.000257,-0.001473,-0.003366,-0.799783,-0.765159,-9.732109
4468744,1761934016930244,0.002732,-0.005543,-0.000097,-0.790254,-0.766726,-9.720960
4472872,1761934016934373,0.002280,-0.000646,0.000319,-0.777586,-0.752386,-9.708237
4477162,1761934016938663,-0.000609,0.000964,0.000732,-0.798217,-0.754047,-9.728920
4481293,1761934016942794,-0.000976,-0.002304,0.001126,-0.809302,-0.758882,-9.722537
4484001,1761934016945502,-0.001406,-0.002724,-0.000915,-0.796642,-0.749272,-9.724115
4488127,1761934016949628,-0.000178,-0.001064,-0.000509,-0.798266,-0.755637,-9.716200
4499242,1761934016960743,0.000642,-0.000248,-0.000094,-0.799806,-0.754071,-9.740064
4503527,1761934016965028,-0.001804,0.000166,-0.001742,-0.803015,-0.744600,-9.730497
4507654,1761934016969154,0.001059,0.001398,-0.002138,-0.807795,-0.757236,-9.720970
4511781,1761934016973282,0.000656,-0.001467,-0.000916,-0.799810,-0.760374,-9.730515
4514639,1761934016976140,-0.001829,-0.000671,-0.002974,-0.799807,-0.757131,-9.730510
4518766,1761934016980267,-0.001003,-0.000249,-0.002145,-0.807691,-0.762023,-9.744802
4522963,1761934016984464,0.002757,-0.003078,-0.001330,-0.796557,-0.763632,-9.728862
4534071,1761934016995572,0.000312,-0.006385,-0.002152,-0.804590,-0.755773,-9.716166
4538215,1761934016999715,-0.002635,0.000147,0.001940,-0.795005,-0.765218,-9.719357
4542345,1761934017003845,0.001435,-0.000259,-0.001715,-0.798209,-0.763587,-9.717747
4545048,1761934017006549,-0.001368,-0.001912,-0.000093,-0.804592,-0.746075,-9.736911
4549333,1761934017010834,-0.001360,-0.002716,-0.000516,-0.807735,-0.757266,-9.732121
4553460,1761934017014961,-0.003851,-0.001091,-0.002154,-0.807882,-0.742882,-9.716228
4557587,1761934017019087,-0.001026,0.005068,-0.003372,-0.799903,-0.750842,-9.708278
4568696,1761934017030197,-0.002190,-0.000655,-0.000109,-0.810955,-0.760395,-9.730529
4586800,1761934017048301,-0.003832,-0.002320,0.001524,-0.791885,-0.752463,-9.727324
4586808,1761934017048309,-0.002232,0.001386,-0.000513,-0.790301,-0.749248,-9.725747
4586812,1761934017048313,-0.001345,0.001809,-0.001747,-0.804591,-0.749333,-9.730548
4586816,1761934017048317,0.001047,0.001814,-0.002140,-0.788655,-0.752408,-9.740077
4589517,1761934017051017,-0.001357,-0.002710,-0.002560,-0.796648,-0.741384,-9.735275
4593655,1761934017055156,0.002698,-0.000212,-0.002142,-0.796639,-0.752375,-9.725722
4597785,1761934017059286,-0.000598,0.002210,-0.001728,-0.798256,-0.749342,-9.714562
4608897,1761934017070397,-0.001851,0.002185,-0.002548,-0.810917,-0.760471,-9.736850
4613182,1761934017074682,-0.000160,-0.001066,0.000716,-0.796630,-0.752432,-9.732119
4615882,1761934017077383,-0.000165,-0.001075,-0.001328,-0.795010,-0.758812,-9.738451
4620010,1761934017081511,-0.000969,-0.000660,-0.000509,-0.804554,-0.754100,-9.738417
4624296,1761934017085797,0.002688,0.002630,0.000326,-0.791827,-0.750861,-9.738440
4628423,1761934017089924,-0.002635,0.002199,-0.005013,-0.788689,-0.763638,-9.716192
4631134,1761934017092635,0.002697,-0.001063,0.000322,-0.788691,-0.755637,-9.720982
4643675,1761934017105176,0.002718,-0.002681,0.001958,-0.801369,-0.760437,-9.728911
4646378,1761934017107878,-0.000167,-0.000661,-0.000094,-0.799775,-0.768424,-9.733684
4650664,1761934017112164,-0.000592,-0.000661,-0.000502,-0.802984,-0.754029,-9.732100
4654792,1761934017116293,-0.000959,0.000166,-0.002969,-0.799736,-0.774786,-9.717727
4658928,1761934017120429,-0.005883,-0.000701,-0.001343,-0.801373,-0.758918,-9.727299
4661631,1761934017123131,-0.003041,-0.000282,-0.002147,-0.801415,-0.755680,-9.719362
4665916,1761934017127416,-0.000985,-0.000257,0.000720,-0.812560,-0.750875,-9.722597
4676898,1761934017138399,-0.001777,-0.002714,-0.000924,-0.791861,-0.755663,-9.717781
4681187,1761934017142688,-0.001767,-0.001480,-0.000928,-0.798175,-0.762011,-9.736904
4685314,1761934017146815,0.000620,0.000590,0.001541,-0.787111,-0.749324,-9.720922
4689440,1761934017150941,-0.000140,-0.003909,-0.000923,-0.782329,-0.752486,-9.717787
4692299,1761934017153800,-0.000967,0.001389,-0.000917,-0.807719,-0.762052,-9.728888
4696430,1761934017157931,0.003152,-0.003499,0.001953,-0.796624,-0.762010,-9.724115
4700569,1761934017162070,0.003103,0.000588,0.000325,-0.806222,-0.750869,-9.714638
4711598,1761934017173098,0.000653,-0.000654,0.002360,-0.798216,-0.757221,-9.724125
4729704,1761934017191205,0.002321,-0.001039,-0.004603,-0.812501,-0.762082,-9.722553
4729718,1761934017191219,-0.001338,-0.003103,-0.002574,-0.799828,-0.755699,-9.719379
4735311,1761934017196812,-0.002989,0.000982,-0.003387,-0.793554,-0.738080,-9.714647
4738030,1761934017199531,0.000606,0.002638,-0.000098,-0.787077,-0.758746,-9.719406
4742170,1761934017203671,-0.002243,0.001377,-0.001331,-0.798159,-0.754121,-9.736854
4746309,1761934017207810,-0.000148,-0.002292,-0.002557,-0.801414,-0.750900,-9.724127
4751869,1761934017213369,-0.001860,0.005060,-0.004186,-0.788635,-0.757214,-9.738440
4756155,1761934017217656,0.001496,-0.003118,-0.000500,-0.799810,-0.758828,-9.724169
4760282,1761934017221783,-0.001812,0.001790,-0.001741,-0.782313,-0.758846,-9.712990
4762995,1761934017224496,-0.001417,0.003019,-0.001736,-0.810950,-0.744587,-9.728926
4775536,1761934017237036,-0.002612,-0.001919,-0.004604,-0.793476,-0.747726,-9.733687
4778237,1761934017239737,-0.001421,-0.000660,-0.002970,-0.799845,-0.746071,-9.728933
4782523,1761934017244024,-0.002588,-0.000680,-0.000509,-0.801454,-0.747675,-9.711426
4786569,1761934017248069,-0.000209,0.003430,-0.002547,-0.801413,-0.750894,-9.722573
4790853,1761934017252354,-0.000551,-0.003123,-0.001733,-0.814198,-0.741344,-9.725775
4793557,1761934017255058,-0.000952,-0.003525,0.001533,-0.806158,-0.758781,-9.733711
4797695,1761934017259196,-0.001359,0.000155,-0.002963,-0.803000,-0.758866,-9.713001
4808803,1761934017270304,-0.000575,0.000574,-0.000917,-0.801429,-0.747691,-9.724154
4812931,1761934017274431,-0.004649,-0.003155,-0.004615,-0.802998,-0.750870,-9.720962
4817217,1761934017278718,-0.002187,-0.001907,-0.002968,-0.793485,-0.752375,-9.716221
4821343,1761934017282844,-0.001789,-0.000265,-0.001742,-0.807772,-0.758794,-9.722597
4824044,1761934017285544,-0.000551,0.000159,-0.002563,-0.807730,-0.760441,-9.736853
4828328,1761934017289829,-0.000538,-0.003527,-0.000926,-0.798244,-0.758870,-9.719378
4832457,1761934017293957,-0.001406,0.002611,-0.002144,-0.801411,-0.749225,-9.727354
4843467,1761934017304967,0.001052,0.000994,0.002773,-0.809383,-0.747781,-9.722520
4847755,1761934017309256,0.000250,0.000574,0.000722,-0.782366,-0.739660,-9.732088
4851882,1761934017313383,0.000199,0.000579,0.002768,-0.798214,-0.755575,-9.735276
4854583,1761934017316084,0.001062,-0.001068,-0.001320,-0.799829,-0.757273,-9.724154
4858725,1761934017320225,0.001479,0.001407,-0.001322,-0.807747,-0.755626,-9.732111
4863015,1761934017324516,0.000251,-0.002290,0.001538,-0.809399,-0.744514,-9.725744
4867142,1761934017328643,0.001506,-0.004756,-0.000503,-0.812556,-0.762034,-9.725734
4878264,1761934017339765,-0.001842,0.000966,-0.002960,-0.782336,-0.754037,-9.714573
4882391,1761934017343891,0.001913,-0.000231,-0.002549,-0.809348,-0.754082,-9.733677
4885091,1761934017346592,0.003179,-0.005955,-0.004186,-0.791924,-0.750791,-9.706661
4889375,1761934017350876,-0.003449,-0.001511,-0.003375,-0.802981,-0.746109,-9.736858
4907371,1761934017368872,0.000263,-0.002260,-0.005020,-0.806137,-0.763595,-9.728916
4907390,1761934017368891,0.003524,0.000202,-0.001318,-0.804606,-0.750869,-9.720943
4907394,1761934017368895,-0.000178,0.000152,-0.002546,-0.795044,-0.754011,-9.724110
4908838,1761934017370339,-0.000593,-0.001884,0.000308,-0.799806,-0.760467,-9.724105
4912982,1761934017374483,-0.000572,0.000172,-0.001743,-0.791791,-0.769945,-9.728930
4915690,1761934017377191,-0.002707,0.003000,0.001542,-0.791776,-0.768297,-9.735296
4919819,1761934017381319,0.001471,-0.001061,-0.000907,-0.807818,-0.750892,-9.716194
4929653,1761934017391154,0.002295,-0.000643,-0.001727,-0.791892,-0.749238,-9.716205
4933778,1761934017395279,-0.001790,-0.000680,-0.002552,-0.782348,-0.749189,-9.728900
4937919,1761934017399420,-0.001796,-0.001504,-0.001738,-0.796632,-0.749255,-9.733722
4940620,1761934017402121,0.000645,0.000155,-0.002545,-0.806151,-0.765153,-9.719383
4944907,1761934017406408,-0.000974,-0.003124,0.000308,-0.801352,-0.776331,-9.719347
4956016,1761934017417517,-0.004267,0.000545,-0.000515,-0.804625,-0.765243,-9.709816
4960145,1761934017421646,-0.003824,-0.004394,0.001531,-0.798244,-0.738073,-9.740059
4964275,1761934017425776,-0.003451,-0.001094,0.003991,-0.799754,-0.768391,-9.724117
4968414,1761934017429915,0.003146,-0.002269,0.001952,-0.796671,-0.747620,-9.711417
4971273,1761934017432774,0.002296,-0.001043,-0.000502,-0.799840,-0.755612,-9.724152
4975398,1761934017436899,0.001106,-0.002688,0.001943,-0.803011,-0.757286,-9.719342
4979527,1761934017441028,0.004759,0.000202,-0.004182,-0.806181,-0.755629,-9.725746
4990637,1761934017452138,-0.001382,-0.001885,-0.002153,-0.788606,-0.763565,-9.725733
4994764,1761934017456264,-0.001381,0.002212,-0.002558,-0.791790,-0.765087,-9.741678
4999052,1761934017460553,-0.000191,-0.000252,0.002769,-0.798160,-0.754005,-9.746379
5001756,1761934017463257,0.001929,-0.003071,-0.001334,-0.785469,-0.754045,-9.744803
5006279,1761934017467779,0.003490,0.001821,-0.005408,-0.795078,-0.750870,-9.727325
5010102,1761934017471603,0.000669,-0.002276,-0.000921,-0.815693,-0.763660,-9.736891
5014279,1761934017475780,0.003939,0.001428,-0.002132,-0.787148,-0.746067,-9.714575
5025295,1761934017486796,-0.001004,-0.000672,-0.003373,-0.791896,-0.754072,-9.711377
5029491,1761934017490992,-0.002587,-0.001877,-0.000939,-0.796604,-0.755625,-9.740093
5032350,1761934017493851,-0.000161,0.001403,-0.005015,-0.791842,-0.757221,-9.719379
5036486,1761934017497987,-0.001000,0.000156,-0.001733,-0.799736,-0.760417,-9.743247
5040614,1761934017502115,0.002702,0.000187,-0.001317,-0.807771,-0.747680,-9.730516
5044744,1761934017506245,-0.000580,0.001807,-0.001735,-0.798186,-0.757161,-9.727347
5048380,1761934017509880,0.003518,-0.002271,-0.002544,-0.795125,-0.734932,-9.725761
5060010,1761934017521511,-0.004221,-0.001903,-0.000932,-0.804601,-0.749303,-9.732153
5062871,1761934017524372,-0.002651,-0.000263,-0.003788,-0.801414,-0.763553,-9.719363
5066997,1761934017528498,0.000308,-0.005564,-0.002971,-0.801320,-0.766766,-9.743214
5071125,1761934017532626,0.003088,0.000600,-0.001317,-0.794987,-0.768356,-9.730497
5075264,1761934017536765,-0.002612,-0.002317,-0.000514,-0.788657,-0.752441,-9.727330
5078266,1761934017539767,-0.000127,-0.002698,-0.000917,-0.801394,-0.758868,-9.720951
5082245,1761934017543745,-0.001413,0.001374,-0.001324,-0.795077,-0.750860,-9.716187
5093388,1761934017554888,0.001538,-0.005534,-0.003379,-0.806153,-0.763599,-9.724155
5097518,1761934017559018,-0.000104,-0.004331,-0.001746,-0.802943,-0.757235,-9.738438
5101646,1761934017563147,-0.000172,0.000975,0.000316,-0.798221,-0.752476,-9.735258
5119725,1761934017581226,-0.002277,0.003010,-0.003368,-0.802901,-0.768403,-9.728903
5119737,1761934017581238,-0.002591,-0.001506,0.000716,-0.788605,-0.771501,-9.735278
5119741,1761934017581242,-0.001373,-0.002299,-0.001328,-0.790264,-0.746056,-9.736879
5126655,1761934017588156,0.003079,0.000164,-0.002122,-0.791787,-0.760465,-9.738422
5130786,1761934017592287,0.004762,-0.003471,0.001954,-0.804615,-0.746147,-9.719376
5133647,1761934017595148,-0.004645,-0.003556,-0.001749,-0.804603,-0.742934,-9.732122
5137780,1761934017599280,-0.001353,-0.004749,-0.001747,-0.788643,-0.768426,-9.711369
5141913,1761934017603414,-0.002181,-0.001484,-0.002972,-0.791880,-0.760441,-9.714568
5146041,1761934017607542,-0.000933,-0.004330,-0.000930,-0.798201,-0.760469,-9.727285
5148904,1761934017610405,0.002292,-0.002262,-0.000094,-0.806179,-0.758913,-9.719387
5161453,1761934017622954,-0.000570,-0.000257,-0.001736,-0.802956,-0.758756,-9.732136
5164154,1761934017625654,0.000242,-0.003947,-0.000089,-0.795004,-0.742891,-9.749605
5168281,1761934017629782,-0.003026,0.000975,-0.002158,-0.807769,-0.757273,-9.720930
5172426,1761934017633926,-0.000563,0.000177,-0.000111,-0.804578,-0.757261,-9.733699
5176713,1761934017638214,-0.003431,-0.003958,-0.002969,-0.799806,-0.758870,-9.725714
5179414,1761934017640914,0.000616,0.001405,0.000319,-0.796546,-0.765257,-9.735257
5183540,1761934017645041,0.000270,-0.000627,-0.005430,-0.796547,-0.766830,-9.732061
5194818,1761934017656319,0.001854,0.001820,-0.004997,-0.793424,-0.755649,-9.735263
5198793,1761934017660294,0.002661,-0.000223,-0.005404,-0.799796,-0.755706,-9.725714
5203803,1761934017665304,-0.000949,-0.002268,-0.000523,-0.790285,-0.752499,-9.720985
5207149,1761934017668650,0.003134,-0.003098,-0.000503,-0.806156,-0.758832,-9.728909
5210014,1761934017671514,-0.002629,0.000167,-0.000518,-0.809392,-0.755793,-9.716166
5214157,1761934017675658,-0.000973,0.001800,-0.000106,-0.796681,-0.749279,-9.717754
5218294,1761934017679795,0.002332,-0.003916,-0.001730,-0.791849,-0.760368,-9.719349
5229402,1761934017690903,-0.002253,-0.000256,-0.002153,-0.790313,-0.749230,-9.720936
5233529,1761934017695030,0.002755,-0.005147,-0.001735,-0.802954,-0.758881,-9.741644
5237657,1761934017699158,-0.002208,0.000142,0.000713,-0.804533,-0.749255,-9.749610
5240517,1761934017702018,0.000655,0.002628,-0.002139,-0.803020,-0.750902,-9.727325
5258595,1761934017720096,0.001491,-0.001866,-0.001326,-0.795027,-0.758856,-9.722533
5259878,1761934017721379,-0.000534,-0.001876,-0.001333,-0.777569,-0.749250,-9.722521
5264163,1761934017725663,-0.000141,-0.001063,0.002362,-0.788642,-0.757176,-9.732055
5268289,1761934017729790,-0.001830,0.001774,-0.001319,-0.806162,-0.758868,-9.717784
5271000,1761934017732501,0.000646,-0.000256,-0.002545,-0.807791,-0.755735,-9.719334
5275128,1761934017736629,-0.003009,-0.001920,-0.000921,-0.804580,-0.754184,-9.712978
5279414,1761934017740914,-0.000633,0.001773,-0.001315,-0.810968,-0.757353,-9.716174
5297404,1761934017758905,0.000233,0.001410,-0.001738,-0.782283,-0.760340,-9.727297
5297413,1761934017758914,-0.003859,0.000137,-0.001335,-0.788630,-0.765213,-9.725681
5297417,1761934017758918,-0.000597,0.002199,-0.001327,-0.804567,-0.760409,-9.732082
5297421,1761934017758921,0.002275,-0.001050,0.002368,-0.807800,-0.746151,-9.720942
5300120,1761934017761621,-0.003412,-0.001907,-0.000111,-0.809315,-0.760415,-9.736899
5304405,1761934017765906,-0.001815,0.000150,-0.002559,-0.790325,-0.750818,-9.711424
5308532,1761934017770033,-0.002595,-0.001070,-0.002975,-0.793443,-0.755583,-9.725739
5319640,1761934017781141,0.002271,0.004287,-0.004185,-0.791864,-0.760313,-9.716217
5323774,1761934017785275,-0.002213,-0.000667,-0.002153,-0.783896,-0.769930,-9.724102
5326475,1761934017787975,-0.000956,-0.002694,-0.000930,-0.803001,-0.765161,-9.725769
5330759,1761934017792260,-0.000167,-0.000678,-0.002548,-0.799768,-0.755645,-9.735268
5334886,1761934017796387,0.001067,-0.002296,-0.001315,-0.799790,-0.757221,-9.730517
5339013,1761934017800514,-0.002204,-0.001894,-0.003379,-0.782341,-0.757154,-9.709856
5341873,1761934017803374,-0.001782,-0.000663,-0.002148,-0.794969,-0.768371,-9.736851
5354251,1761934017815751,-0.005440,-0.002716,-0.003401,-0.796611,-0.773117,-9.703436
5357110,1761934017818611,-0.001396,-0.000260,-0.002151,-0.794982,-0.781042,-9.709796
5361236,1761934017822736,-0.001394,-0.001490,0.001129,-0.783887,-0.761955,-9.716179
5365364,1761934017826864,-0.000999,-0.001073,0.001133,-0.799770,-0.760400,-9.725774
5369648,1761934017831149,-0.000936,-0.003106,-0.002978,-0.806184,-0.752471,-9.725748
5372349,1761934017833850,0.000224,0.000154,-0.001323,-0.801356,-0.765303,-9.727259
5376489,1761934017837990,-0.000159,-0.002300,-0.003780,-0.791816,-0.758900,-9.727303
5387632,1761934017849133,-0.005085,-0.000681,-0.004215,-0.799800,-0.760397,-9.720939
5391762,1761934017853263,-0.000163,0.000587,-0.000922,-0.788616,-0.760350,-9.740053
5395898,1761934017857399,-0.000566,0.000161,-0.002562,-0.804615,-0.747690,-9.720961
5400184,1761934017861685,-0.001776,-0.000672,-0.001335,-0.787075,-0.758781,-9.725730
5402884,1761934017864385,0.001037,-0.001888,-0.002544,-0.795003,-0.761975,-9.728908
5407022,1761934017868523,0.000232,-0.000650,-0.002140,-0.793452,-0.757207,-9.727324
5411148,1761934017872649,-0.000168,0.000575,-0.002143,-0.793478,-0.746062,-9.722542
5438907,1761934017900408,-0.001817,0.000574,-0.000924,-0.814176,-0.749285,-9.728954
5438924,1761934017900425,-0.000989,0.000978,-0.003376,-0.798205,-0.750840,-9.735293
5438928,1761934017900429,-0.001763,-0.002701,-0.002972,-0.794981,-0.765188,-9.730487
5438932,1761934017900433,-0.001820,0.001799,0.001942,-0.803007,-0.765277,-9.719389
5441791,1761934017903292,0.001459,-0.000230,0.001133,-0.809426,-0.746103,-9.716228
5445921,1761934017907421,-0.003037,0.000971,-0.005430,-0.788660,-0.760385,-9.724150
5457046,1761934017918547,-0.005901,0.000552,-0.005034,-0.802972,-0.758826,-9.730526
5475124,1761934017936625,0.003917,0.003059,-0.002130,-0.796615,-0.753965,-9.732081
5475136,1761934017936637,-0.000993,0.000574,-0.001742,-0.802940,-0.750808,-9.733706
5477836,1761934017939337,-0.003877,0.002209,-0.002160,-0.795058,-0.763660,-9.717754
5481975,1761934017943476,-0.000558,-0.001895,-0.005015,-0.804563,-0.755620,-9.728928
5486101,1761934017947602,-0.001789,0.000164,-0.000929,-0.796626,-0.765157,-9.712984
5488960,1761934017950460,0.002680,-0.000647,-0.001720,-0.796606,-0.776382,-9.714584
5493087,1761934017954588,-0.003034,-0.001494,0.000713,-0.799806,-0.758850,-9.722527
5497217,1761934017958718,-0.002614,-0.001085,-0.000928,-0.806171,-0.755605,-9.733719
5508327,1761934017969828,-0.000982,-0.002306,-0.002556,-0.796643,-0.752438,-9.719388
5512612,1761934017974113,-0.001771,-0.000668,-0.007060,-0.788688,-0.752440,-9.724165
5516740,1761934017978240,-0.003845,0.000551,-0.002565,-0.793518,-0.739723,-9.725748
5519452,1761934017980952,0.001052,0.000976,-0.000498,-0.807714,-0.769973,-9.728922
5523579,1761934017985080,-0.000963,-0.002697,0.001525,-0.801460,-0.742957,-9.713009
5527865,1761934017989366,0.004317,0.000180,0.000740,-0.794970,-0.770019,-9.728868
5531903,1761934017993404,-0.003428,-0.002714,0.001933,-0.790210,-0.771528,-9.725729
5543013,1761934018004514,-0.002977,-0.004336,-0.000533,-0.801411,-0.763635,-9.712986
5547315,1761934018008815,-0.001003,0.002193,-0.000914,-0.802932,-0.768417,-9.719386
5550020,1761934018011521,-0.003019,0.000566,-0.002971,-0.796512,-0.777906,-9.736901
5554147,1761934018015648,-0.001798,0.001377,-0.003381,-0.796630,-0.757240,-9.727333
5558273,1761934018019774,0.001038,0.001412,-0.002960,-0.796645,-0.757195,-9.717817
5562560,1761934018024060,0.005150,-0.001045,-0.001716,-0.801389,-0.746086,-9.732073
5565261,1761934018026762,0.000715,-0.003923,0.000308,-0.798195,-0.768459,-9.708202
5577802,1761934018039303,-0.004249,-0.000665,-0.002572,-0.793477,-0.752476,-9.713009
5580503,1761934018042004,-0.001788,-0.001899,-0.005015,-0.790212,-0.763571,-9.722548
5584789,1761934018046290,0.001429,0.000575,-0.000499,-0.798176,-0.766829,-9.728882
5588916,1761934018050417,-0.001781,-0.002295,-0.002562,-0.798219,-0.749286,-9.732098
5593053,1761934018054554,0.003541,-0.003099,-0.002954,-0.804623,-0.755592,-9.713013
5595754,1761934018057254,-0.001352,-0.000245,-0.003375,-0.798162,-0.769935,-9.732089
5600041,1761934018061542,-0.003451,0.002197,-0.004203,-0.794990,-0.771571,-9.724120
5608292,1761934018069792,-0.002210,-0.001895,-0.005831,-0.806162,-0.760449,-9.724143
5611150,1761934018072651,0.001902,-0.002686,-0.003364,-0.812573,-0.742930,-9.724179
5615279,1761934018076780,0.001895,-0.001876,-0.002135,-0.801486,-0.746078,-9.708253
5627839,1761934018089340,0.003120,-0.000224,-0.004596,-0.793454,-0.754052,-9.717747
5630562,1761934018092063,-0.004240,-0.001917,-0.001751,-0.791831,-0.757259,-9.720923
5634705,1761934018096206,-0.002239,0.003024,-0.000514,-0.806177,-0.757290,-9.725729
5654116,1761934018115617,-0.001818,-0.001498,-0.000910,-0.795007,-0.758829,-9.740020
5654134,1761934018115635,-0.000563,0.000562,0.000720,-0.796563,-0.768425,-9.730476
5654138,1761934018115639,0.004351,-0.002673,-0.002541,-0.799768,-0.766714,-9.727331
5654142,1761934018115643,-0.001773,-0.002714,-0.003379,-0.809398,-0.755704,-9.709818
5655580,1761934018117080,0.001091,-0.003507,-0.000919,-0.810893,-0.765208,-9.733696
5666566,1761934018128067,-0.001387,-0.001071,-0.002149,-0.804521,-0.763611,-9.736896
5670712,1761934018132213,0.000270,-0.003933,-0.002150,-0.795015,-0.754008,-9.720966
5674883,1761934018136383,0.001933,-0.002264,-0.003375,-0.804575,-0.757252,-9.727328
5679152,1761934018140653,-0.000561,-0.001061,-0.001332,-0.796606,-0.757250,-9.720963
5681864,1761934018143365,0.002685,0.003055,0.000327,-0.793435,-0.758820,-9.717785
5685992,1761934018147493,-0.001390,-0.001893,-0.000105,-0.790297,-0.750898,-9.716164
5690277,1761934018151778,-0.000144,0.001402,-0.002559,-0.799742,-0.766742,-9.733685
5701244,1761934018162745,-0.000176,0.002612,0.002775,-0.795019,-0.753989,-9.732100
5707813,1761934018169313,-0.002545,-0.005585,-0.002165,-0.785383,-0.774727,-9.724125
5709575,1761934018171075,-0.004242,-0.001895,0.000699,-0.785475,-0.763536,-9.717778
5712436,1761934018173937,0.002281,-0.000629,-0.005005,-0.793440,-0.757132,-9.722537
5716572,1761934018178073,-0.002209,-0.002309,0.002352,-0.798228,-0.757177,-9.722564
5720704,1761934018182205,-0.001812,-0.001083,-0.000510,-0.787073,-0.753999,-9.725725
5724832,1761934018186333,-0.000937,-0.004754,-0.002560,-0.799836,-0.754061,-9.720965
5735966,1761934018197467,0.001871,0.000577,-0.002547,-0.787092,-0.752465,-9.714581
5740121,1761934018201622,-0.005860,0.000551,-0.005854,-0.810965,-0.760401,-9.719407
5742993,1761934018204494,-0.002609,-0.000241,-0.001746,-0.793436,-0.758770,-9.730513
5747124,1761934018208625,-0.001797,-0.002715,0.000718,-0.799813,-0.754103,-9.727322
5751262,1761934018212763,-0.004641,-0.001079,0.000292,-0.798228,-0.752549,-9.717750
5755392,1761934018216893,0.001515,-0.004329,-0.004196,-0.795020,-0.762066,-9.720921
5758253,1761934018219754,-0.001822,0.000960,-0.003781,-0.791871,-0.747645,-9.722567
5770683,1761934018232184,0.000657,-0.000242,-0.000504,-0.787096,-0.753959,-9.716159
5773544,1761934018235045,0.001901,-0.003512,-0.005005,-0.798215,-0.749284,-9.738486
5777671,1761934018239172,0.000259,-0.002279,-0.003384,-0.795055,-0.750878,-9.724157
5787348,1761934018248849,-0.000164,0.000968,-0.002546,-0.799766,-0.753993,-9.743284
5788820,1761934018250321,-0.000217,0.004671,0.000722,-0.804550,-0.760378,-9.730490
5792947,1761934018254448,0.000681,-0.001471,-0.002556,-0.801422,-0.752461,-9.724173
5797075,1761934018258575,-0.000931,-0.002297,-0.002153,-0.799769,-0.768385,-9.722538
5799934,1761934018261435,-0.001780,-0.000218,-0.007893,-0.807810,-0.752550,-9.720931
5804061,1761934018265561,-0.002251,0.001781,-0.000504,-0.809357,-0.766865,-9.717775
5808186,1761934018269687,0.000240,-0.000246,-0.002143,-0.806164,-0.746101,-9.732141
5817873,1761934018279373,0.001495,-0.001459,-0.000914,-0.790266,-0.754106,-9.724110
5822003,1761934018283503,-0.001778,-0.004766,-0.001329,-0.790257,-0.750805,-9.733704
5833170,1761934018294671,0.002301,-0.001042,-0.000910,-0.796647,-0.749269,-9.730501
5837307,1761934018298808,-0.002187,-0.001897,-0.005018,-0.803007,-0.750898,-9.728914
5841443,1761934018302943,-0.000199,0.000571,-0.002957,-0.793496,-0.754063,-9.716209
5844311,1761934018305812,0.002737,-0.002268,-0.001322,-0.801386,-0.750868,-9.740034
5848440,1761934018309941,0.000700,-0.004340,0.001536,-0.798288,-0.741399,-9.711399
5852568,1761934018314069,-0.001864,0.004234,-0.004181,-0.785443,-0.760392,-9.720947
5856696,1761934018318197,0.000206,0.003022,-0.000495,-0.809352,-0.758871,-9.728914
5867803,1761934018329304,0.002286,0.001400,-0.002135,-0.787093,-0.752452,-9.728937
5872089,1761934018333590,-0.004620,-0.004352,-0.000943,-0.782275,-0.761942,-9.717780
5874795,1761934018336295,0.000677,-0.003525,0.000311,-0.788713,-0.755577,-9.711439
5878928,1761934018340429,0.001499,-0.003092,-0.000100,-0.788684,-0.758757,-9.725778
5883212,1761934018344713,-0.000545,-0.002692,0.001127,-0.777552,-0.752300,-9.727366
5887338,1761934018348839,-0.000553,-0.002710,-0.004198,-0.818861,-0.752521,-9.728916
5890040,1761934018351541,0.000234,0.001802,-0.004595,-0.803047,-0.741389,-9.725718
5902580,1761934018364081,0.000295,-0.005167,0.001125,-0.810989,-0.742979,-9.733684
5905368,1761934018366869,-0.000991,0.001384,-0.000100,-0.802967,-0.762027,-9.728881
5909552,1761934018371053,-0.000219,0.003023,-0.001317,-0.804518,-0.758828,-9.741611
5913697,1761934018375198,-0.001749,-0.005572,-0.004619,-0.795007,-0.757243,-9.722552
5917842,1761934018379342,-0.000146,-0.003514,-0.004604,-0.807786,-0.758852,-9.714580
5920545,1761934018382046,-0.001399,-0.000257,-0.002144,-0.807741,-0.762024,-9.728899
5924829,1761934018386330,0.002762,-0.001447,-0.000098,-0.804606,-0.752466,-9.719393
5935941,1761934018397442,-0.001814,-0.001070,-0.000921,-0.798241,-0.742920,-9.720929
5940069,1761934018401570,-0.001030,0.000970,-0.000091,-0.791860,-0.758816,-9.716170
5944195,1761934018405696,-0.004250,-0.000687,-0.004204,-0.790253,-0.762036,-9.722515
5948322,1761934018409823,-0.000143,-0.002285,0.002762,-0.801394,-0.754060,-9.725719
5951181,1761934018412682,-0.003444,0.000558,-0.001339,-0.802915,-0.766825,-9.738441
5955322,1761934018416823,-0.002178,-0.001063,-0.000935,-0.815707,-0.747753,-9.735283
5974677,1761934018436178,0.000205,0.000965,0.000321,-0.812566,-0.758847,-9.725726
5974685,1761934018436186,-0.003443,-0.001500,-0.002971,-0.802969,-0.765222,-9.730513
5974689,1761934018436190,-0.000581,-0.001469,-0.002151,-0.791895,-0.758847,-9.716181
5974693,1761934018436194,-0.000574,-0.001492,-0.000095,-0.791785,-0.762010,-9.741611
5977553,1761934018439054,-0.000928,-0.003912,-0.001340,-0.799827,-0.755699,-9.714579
5989943,1761934018451444,-0.000598,0.000571,0.000724,-0.806169,-0.765262,-9.724110
6006831,1761934018468331,-0.002199,0.000165,-0.001336,-0.807684,-0.774775,-9.724124
6006849,1761934018468349,-0.000157,-0.000247,-0.002557,-0.796534,-0.765169,-9.746395
6006852,1761934018468353,0.001538,-0.003910,-0.003375,-0.801305,-0.757248,-9.744825
6014953,1761934018476453,-0.004236,0.001786,0.000298,-0.806161,-0.752493,-9.730487
6019238,1761934018480739,-0.000488,-0.005967,-0.001746,-0.798171,-0.758856,-9.733682
6021939,1761934018483440,-0.000971,0.000560,-0.005009,-0.798211,-0.754053,-9.722580
6026066,1761934018487566,0.001931,-0.002268,-0.007057,-0.788677,-0.750836,-9.728920
6030192,1761934018491692,-0.001436,0.001377,-0.002142,-0.807792,-0.755730,-9.714626
6034386,1761934018495886,-0.000589,0.000559,-0.004188,-0.796586,-0.750906,-9.730497
6037246,1761934018498747,-0.001387,-0.002307,0.002351,-0.790264,-0.750800,-9.735305
6049635,1761934018511136,-0.003021,-0.001077,-0.000107,-0.803017,-0.747630,-9.732116
6052498,1761934018513999,-0.001849,0.001801,-0.003787,-0.802999,-0.752452,-9.730513
6056625,1761934018518126,-0.003082,0.002596,-0.003785,-0.807806,-0.744497,-9.724212
6060752,1761934018522253,0.000670,-0.000649,-0.000098,-0.799833,-0.746085,-9.727340
6065038,1761934018526539,-0.001768,-0.004354,-0.004604,-0.810925,-0.754072,-9.736849
6067740,1761934018529240,-0.001426,0.001765,0.000731,-0.794990,-0.755624,-9.732113
6071874,1761934018533375,-0.000180,0.000581,-0.001327,-0.799809,-0.752492,-9.735270
6082987,1761934018544488,0.000289,-0.003489,-0.001747,-0.796586,-0.755690,-9.732084
6087114,1761934018548615,0.003938,-0.001853,-0.000906,-0.798250,-0.755685,-9.719410
6091400,1761934018552901,-0.000978,-0.001080,-0.002142,-0.795059,-0.765166,-9.709850
6095528,1761934018557029,-0.006701,-0.002331,-0.004213,-0.799845,-0.755628,-9.714625
6098229,1761934018559730,0.000248,0.001814,-0.007059,-0.785470,-0.747705,-9.719339
6102516,1761934018564017,0.002300,0.000584,-0.001321,-0.790188,-0.750814,-9.752791
6106643,1761934018568144,-0.003074,0.000964,-0.000917,-0.807829,-0.738179,-9.730506
6117767,1761934018579268,-0.000178,0.000175,-0.004195,-0.799801,-0.757303,-9.720957
6121895,1761934018583396,-0.000124,-0.003088,-0.000931,-0.807760,-0.752481,-9.728896
6126022,1761934018587523,-0.000963,-0.000638,-0.002969,-0.798215,-0.744556,-9.735225
6128882,1761934018590382,0.003136,0.000183,-0.002137,-0.804582,-0.755655,-9.730522
6133010,1761934018594511,0.000255,-0.002276,-0.000104,-0.798197,-0.762007,-9.722591
6137067,1761934018598568,-0.001815,-0.000677,-0.001325,-0.787094,-0.763649,-9.703433
6141358,1761934018602859,0.004356,-0.001452,0.001144,-0.796626,-0.754078,-9.724143
6152348,1761934018613848,-0.000991,-0.001481,-0.004193,-0.796695,-0.747638,-9.722575
6156638,1761934018618139,0.001052,-0.001038,-0.000502,-0.787088,-0.757206,-9.716179
6159338,1761934018620839,-0.000159,-0.000239,-0.001741,-0.806162,-0.763645,-9.711414
6163466,1761934018624967,-0.000120,-0.003933,-0.000103,-0.796645,-0.755690,-9.717765
6167751,1761934018629252,-0.000568,-0.000242,-0.002145,-0.820517,-0.750930,-9.716172
6185672,1761934018647173,0.003106,-0.001891,-0.000081,-0.804617,-0.752515,-9.714611
6185685,1761934018647186,0.002294,0.000177,-0.000499,-0.804570,-0.757253,-9.732122
6188542,1761934018650043,-0.002607,-0.002326,-0.004607,-0.801462,-0.744524,-9.711439
6192669,1761934018654170,0.002350,-0.004331,-0.001733,-0.803009,-0.747714,-9.727359
6196796,1761934018658297,-0.000211,0.003429,0.003191,-0.804629,-0.741329,-9.725746
6199656,1761934018661157,-0.000968,-0.001078,-0.002148,-0.799827,-0.746134,-9.717813
6207802,1761934018669303,-0.002982,-0.004361,-0.000931,-0.790297,-0.754001,-9.719413
6207978,1761934018669478,0.001449,0.000571,-0.002127,-0.812543,-0.758931,-9.717790
6219104,1761934018680604,-0.001024,0.001781,-0.000910,-0.795033,-0.754084,-9.716179
6223237,1761934018684738,0.001032,0.004668,-0.002948,-0.788641,-0.757222,-9.719347
6227364,1761934018688865,0.000241,0.001810,-0.001325,-0.787000,-0.760409,-9.733648
6230064,1761934018691565,-0.000961,-0.003545,-0.001735,-0.802917,-0.758815,-9.735296
6234350,1761934018695850,-0.002613,-0.002711,0.000300,-0.791825,-0.755627,-9.727315
6238478,1761934018699979,-0.002608,-0.003137,-0.002969,-0.795060,-0.755717,-9.716181
6242605,1761934018704106,0.003110,-0.002671,0.000728,-0.801356,-0.768410,-9.722544
6253716,1761934018715217,-0.000571,-0.000664,-0.001733,-0.809318,-0.762049,-9.740040
6257844,1761934018719345,0.000243,-0.001465,-0.002554,-0.799833,-0.758788,-9.724154
6260703,1761934018722204,0.000256,0.000570,-0.000917,-0.807817,-0.755654,-9.713022
6264830,1761934018726330,0.000640,0.000567,-0.000084,-0.802914,-0.760431,-9.741628
6268956,1761934018730457,0.004312,0.000199,-0.002948,-0.796640,-0.758842,-9.720940
6273242,1761934018734743,-0.000994,0.000578,-0.002144,-0.798276,-0.744498,-9.719397
6275944,1761934018737445,0.000663,0.001379,-0.002954,-0.803037,-0.754044,-9.719363
6288486,1761934018749987,0.001858,-0.001885,0.001142,-0.803004,-0.747655,-9.727346
6291249,1761934018752750,-0.001822,0.000555,-0.001737,-0.795049,-0.760358,-9.720968
6295376,1761934018756877,-0.003381,-0.006419,-0.000937,-0.782367,-0.749257,-9.722578
6299504,1761934018761005,0.001937,-0.003907,-0.001330,-0.802997,-0.755684,-9.711418
6303632,1761934018765133,-0.000596,-0.001072,-0.002963,-0.799824,-0.750872,-9.725715
6306490,1761934018767991,-0.000584,0.001834,-0.003386,-0.787110,-0.749287,-9.716140
6375816,1761934018837317,-0.003838,-0.002325,-0.003789,-0.814102,-0.765253,-9.728922
6375826,1761934018837327,-0.000633,0.004270,-0.002958,-0.790251,-0.763570,-9.720926
6375830,1761934018837331,0.000252,-0.001883,-0.000919,-0.787115,-0.750868,-9.717731
6375834,1761934018837335,0.001086,-0.001477,0.000315,-0.806213,-0.754092,-9.722560
6375838,1761934018837339,-0.004662,-0.000272,-0.002977,-0.807784,-0.750884,-9.725770
6375842,1761934018837343,0.001429,0.001800,0.000735,-0.798224,-0.747682,-9.724159
6375852,1761934018837353,0.002314,-0.003100,-0.000911,-0.807723,-0.762016,-9.733692
6415426,1761934018876927,0.000249,-0.003138,0.000317,-0.790211,-0.758848,-9.744810
6415444,1761934018876945,-0.003850,0.000554,0.001522,-0.799774,-0.763648,-9.722553
6415448,1761934018876949,-0.002988,-0.003144,-0.002150,-0.793461,-0.757203,-9.720970
6415452,1761934018876952,-0.003038,-0.001491,0.002755,-0.788609,-0.757132,-9.741607
6415456,1761934018876956,0.000623,0.000154,-0.000907,-0.809298,-0.760442,-9.735258
6415466,1761934018876967,0.002697,-0.000215,-0.000909,-0.793431,-0.755599,-9.732095
6415470,1761934018876971,0.003541,-0.001444,0.000321,-0.809440,-0.741363,-9.728908
6415474,1761934018876974,0.001906,-0.002667,-0.001332,-0.793468,-0.744500,-9.725729
6415478,1761934018876978,-0.000987,0.001396,0.000714,-0.782292,-0.752395,-9.725744
6415482,1761934018876982,0.001100,-0.002683,-0.002963,-0.791793,-0.754015,-9.738493
6415485,1761934018876986,-0.000585,0.001386,-0.003372,-0.790244,-0.754061,-9.730524
6415489,1761934018876990,-0.003853,0.001795,-0.000930,-0.793475,-0.754122,-9.714553
6415499,1761934018877000,-0.004223,-0.000259,-0.002573,-0.798195,-0.760496,-9.719316
6416149,1761934018877649,-0.003021,0.000160,-0.000112,-0.790290,-0.746017,-9.724186
6420291,1761934018881792,0.000987,0.005915,-0.000093,-0.809395,-0.747692,-9.725768
6423004,1761934018884505,-0.000169,0.002615,-0.003370,-0.806215,-0.746105,-9.724182
6427288,1761934018888789,0.003960,-0.003506,-0.001311,-0.806123,-0.757323,-9.725681
6431415,1761934018892916,-0.001406,-0.002718,0.002361,-0.791792,-0.769953,-9.725723
6435542,1761934018897043,-0.001802,0.000145,0.000310,-0.796669,-0.746159,-9.722589
6446651,1761934018908152,-0.001348,-0.003514,0.001937,-0.795111,-0.739753,-9.727344
6450787,1761934018912288,-0.005496,0.000525,-0.000109,-0.796659,-0.755604,-9.721014
6453650,1761934018915151,0.002682,0.000190,-0.002956,-0.801452,-0.750910,-9.722559
6457776,1761934018919277,0.001440,-0.000252,0.001547,-0.812555,-0.741300,-9.733728
6461904,1761934018923405,0.001511,-0.001457,0.001945,-0.793424,-0.758768,-9.736903
6466032,1761934018927533,0.002722,-0.005560,0.001138,-0.809356,-0.754008,-9.733729
6468892,1761934018930393,-0.000545,0.000985,-0.006647,-0.802991,-0.750904,-9.730515
6481290,1761934018942791,0.001067,-0.001467,-0.002139,-0.806190,-0.758895,-9.720973
6484149,1761934018945650,-0.001348,-0.001058,-0.002158,-0.795068,-0.754008,-9.720999
6492407,1761934018953907,-0.003444,0.000946,-0.003380,-0.798199,-0.752422,-9.730545
6496692,1761934018958193,-0.005086,-0.000288,-0.002568,-0.783823,-0.763606,-9.730472
6499392,1761934018960893,-0.001817,-0.002301,-0.005837,-0.787052,-0.758774,-9.730521
6503521,1761934018965021,-0.002216,-0.001088,-0.001735,-0.810996,-0.742923,-9.733693
6514673,1761934018976174,-0.002964,-0.005171,-0.001345,-0.810887,-0.754039,-9.740051
6518811,1761934018980311,-0.002634,0.000144,-0.001332,-0.796628,-0.750908,-9.727308
6522938,1761934018984439,-0.002579,-0.001885,-0.000525,-0.810943,-0.758808,-9.728933
6535467,1761934018996968,-0.003864,-0.001508,-0.002564,-0.798203,-0.752495,-9.727336
6535473,1761934018996974,-0.000175,-0.001057,-0.002561,-0.796547,-0.768366,-9.730501
6536947,1761934018998448,-0.002644,0.001804,-0.004608,-0.794988,-0.761919,-9.730520
6539648,1761934019001149,-0.003406,-0.003542,-0.000115,-0.782300,-0.760346,-9.722528
6543794,1761934019005294,0.000300,-0.003921,-0.000924,-0.780709,-0.757222,-9.720934
6547921,1761934019009422,-0.000988,0.000141,-0.001325,-0.793506,-0.747570,-9.720968
6559031,1761934019020532,0.001062,-0.000234,0.000314,-0.796642,-0.758830,-9.720974
6563317,1761934019024818,-0.003048,0.001359,-0.004193,-0.793411,-0.766822,-9.722507
6567445,1761934019028945,-0.000613,0.001797,-0.002556,-0.795035,-0.754070,-9.725713
6570148,1761934019031648,-0.001803,0.002619,-0.000516,-0.802930,-0.754121,-9.736874
6574433,1761934019035934,-0.000572,0.001814,-0.007062,-0.799768,-0.754103,-9.733681
6578563,1761934019040063,0.002702,-0.001053,-0.002544,-0.812651,-0.744526,-9.713017
6582701,1761934019044202,0.001060,-0.000633,-0.000923,-0.798179,-0.757268,-9.725736
6593811,1761934019055312,0.003950,0.000204,-0.001723,-0.798157,-0.758784,-9.741669
6597940,1761934019059440,-0.001351,-0.003101,-0.000930,-0.796645,-0.760420,-9.719352
6600799,1761934019062300,0.000281,-0.001867,-0.003380,-0.793448,-0.755625,-9.719389
6604928,1761934019066428,0.000668,-0.000654,-0.003369,-0.788576,-0.766675,-9.744859
6609055,1761934019070556,-0.002975,-0.001498,-0.000110,-0.795084,-0.750848,-9.717810
6613196,1761934019074697,-0.003063,0.001381,-0.000110,-0.799881,-0.758788,-9.709850
6616056,1761934019077557,-0.006261,0.001365,-0.001765,-0.788669,-0.758779,-9.724122
6628433,1761934019089934,-0.001408,-0.000254,-0.002966,-0.804670,-0.738153,-9.717802
6631291,1761934019092792,-0.004303,-0.000294,-0.000100,-0.790304,-0.766713,-9.713017
6635420,1761934019096920,0.001077,-0.000640,-0.002142,-0.807797,-0.749335,-9.720973
6639547,1761934019101048,-0.002188,0.000962,-0.002554,-0.799828,-0.752501,-9.720957
6643833,1761934019105334,-0.000954,-0.002300,-0.000919,-0.783923,-0.744393,-9.728928
6646533,1761934019108034,0.000669,-0.001881,-0.004182,-0.796632,-0.755702,-9.732123
6650673,1761934019112174,0.004761,-0.002258,-0.001722,-0.798265,-0.755669,-9.709807
6661789,1761934019123290,-0.002586,-0.000268,-0.000924,-0.802992,-0.754056,-9.725733
6665916,1761934019127417,0.000637,0.001402,-0.001319,-0.790272,-0.750834,-9.733683
6683993,1761934019145494,0.000635,0.000989,-0.001320,-0.795040,-0.757230,-9.713003
6685433,1761934019146933,0.001868,-0.001879,0.003188,-0.799862,-0.741291,-9.720980
6688134,1761934019149635,-0.003839,-0.000260,-0.002569,-0.796666,-0.738135,-9.728902
6692273,1761934019153773,-0.002197,0.000559,-0.002556,-0.796619,-0.754084,-9.719370
6696568,1761934019158068,-0.001805,-0.000275,0.000311,-0.799760,-0.757249,-9.735289
6700696,1761934019162197,-0.001400,0.000980,-0.000918,-0.802953,-0.758827,-9.735287
6718770,1761934019180271,-0.000172,0.001401,-0.000920,-0.812515,-0.755682,-9.724136
6718785,1761934019180286,-0.001383,-0.003523,-0.000923,-0.798247,-0.746115,-9.717773
6718789,1761934019180290,-0.002225,-0.000667,-0.000922,-0.780764,-0.750819,-9.708251
6725623,1761934019187123,0.002302,0.001407,-0.001728,-0.799771,-0.763588,-9.725760
6729750,1761934019191251,-0.000528,-0.003921,-0.000523,-0.795086,-0.749268,-9.708225
6732622,1761934019194123,0.001871,0.002637,-0.002543,-0.801436,-0.757251,-9.711406
6736796,1761934019198297,0.003554,-0.002266,-0.005826,-0.809415,-0.747691,-9.720965
6740988,1761934019202488,0.002250,0.001804,0.001143,-0.795091,-0.758892,-9.700279
6745125,1761934019206626,0.000274,-0.001070,-0.002550,-0.804602,-0.754050,-9.716244
6747826,1761934019209327,0.001065,-0.001461,0.001947,-0.807737,-0.760437,-9.736895
6760365,1761934019221866,-0.001363,-0.001480,-0.000925,-0.810892,-0.763654,-9.735294
6763066,1761934019224566,0.001103,-0.004336,0.000316,-0.798221,-0.771521,-9.713026
6767350,1761934019228851,-0.003873,0.000555,0.000303,-0.806104,-0.768390,-9.741625
6771475,1761934019232976,-0.004238,-0.003154,-0.000927,-0.799767,-0.760412,-9.735257
6775601,1761934019237102,-0.003860,-0.000689,0.000302,-0.791844,-0.749197,-9.735281
6778467,1761934019239968,0.001888,-0.001050,-0.000091,-0.791833,-0.757192,-9.730524
6782595,1761934019244096,-0.000927,-0.003918,0.001525,-0.806154,-0.763627,-9.717787
6793714,1761934019255214,-0.000583,-0.001076,-0.002142,-0.795002,-0.765201,-9.720931
6797753,1761934019259254,-0.000966,0.000159,0.001538,-0.807786,-0.749284,-9.732147
6802040,1761934019263541,-0.001393,0.000153,-0.000507,-0.801354,-0.757160,-9.748024
6806169,1761934019267670,0.001458,-0.002298,0.001137,-0.807703,-0.763565,-9.740103
6808869,1761934019270370,0.001445,0.001816,0.001951,-0.787069,-0.747668,-9.740091
6813154,1761934019274655,-0.000965,0.001792,-0.001325,-0.799778,-0.758777,-9.728956
6817280,1761934019278781,-0.003421,0.001379,-0.002163,-0.796594,-0.769924,-9.719390
6828387,1761934019289888,-0.002575,-0.001476,-0.001750,-0.799786,-0.765204,-9.717775
6832519,1761934019294020,0.001070,0.001410,-0.001327,-0.806181,-0.765228,-9.708224
6836663,1761934019298164,-0.000531,-0.002280,-0.000515,-0.796590,-0.757232,-9.733698
6839525,1761934019301026,-0.001390,0.002203,0.001128,-0.798158,-0.755617,-9.738480
6843652,1761934019305153,0.002324,-0.002680,-0.001323,-0.809299,-0.766834,-9.719341
6861731,1761934019323232,-0.001780,-0.003522,-0.003387,-0.804551,-0.758847,-9.725691
6861739,1761934019323240,-0.001392,-0.001904,0.001132,-0.799826,-0.749274,-9.727293
6861743,1761934019323244,-0.001387,-0.000666,-0.000920,-0.795047,-0.747636,-9.733702
6863016,1761934019324517,-0.001870,0.002999,-0.001320,-0.793439,-0.752401,-9.735249
6865876,1761934019327376,-0.000176,0.000135,0.001956,-0.796642,-0.757252,-9.719376
6878374,1761934019339875,-0.003831,0.000556,-0.001746,-0.790319,-0.742817,-9.727354
6896302,1761934019357802,-0.000629,-0.000676,0.001134,-0.798171,-0.755571,-9.738502
6896313,1761934019357814,-0.000175,-0.001506,-0.000906,-0.793432,-0.746034,-9.740063
6899170,1761934019360671,0.000660,-0.003111,-0.002142,-0.801383,-0.750867,-9.725690
6903300,1761934019364801,-0.002198,-0.001075,0.000709,-0.798193,-0.763629,-9.720898
6907502,1761934019369003,-0.002168,-0.005191,-0.002560,-0.803019,-0.747690,-9.727356
6910253,1761934019371754,0.001905,-0.003497,-0.001738,-0.807709,-0.757257,-9.736865
6914396,1761934019375897,-0.001851,0.002196,-0.001741,-0.798241,-0.742902,-9.727357
6918524,1761934019380025,0.002718,-0.003087,-0.003374,-0.809350,-0.755672,-9.725750
6929634,1761934019391135,0.004394,-0.002665,-0.001726,-0.791826,-0.765150,-9.719348
6933921,1761934019395422,-0.000168,0.000975,-0.000098,-0.803010,-0.752447,-9.712998
6938048,1761934019399549,-0.000108,-0.002678,-0.003384,-0.799822,-0.750858,-9.727356
6940749,1761934019402250,-0.003414,-0.000665,-0.000934,-0.788635,-0.754087,-9.733666
6944889,1761934019406390,-0.003012,-0.000665,-0.000109,-0.787042,-0.749260,-9.732078
6949174,1761934019410675,-0.002596,-0.000244,-0.003796,-0.790253,-0.746117,-9.732066
6953301,1761934019414802,-0.001013,0.000974,-0.003373,-0.793369,-0.771516,-9.736881
6964413,1761934019425914,-0.003044,0.000533,-0.002145,-0.798244,-0.747616,-9.735291
6968539,1761934019430039,-0.001776,-0.002297,-0.001745,-0.810905,-0.755707,-9.741614
6971397,1761934019432898,-0.002581,-0.001497,-0.000104,-0.814222,-0.741377,-9.716194
6975523,1761934019437024,-0.004648,0.000942,-0.004200,-0.801383,-0.752480,-9.733699
6979652,1761934019441153,-0.002190,-0.001487,-0.004195,-0.799814,-0.752473,-9.725735
6983791,1761934019445292,0.001445,0.000168,0.000728,-0.798239,-0.750830,-9.727362
6986650,1761934019448151,-0.000955,-0.000669,-0.003777,-0.802986,-0.755602,-9.733702
6999038,1761934019460539,-0.003467,0.002178,-0.000920,-0.806218,-0.747627,-9.724147
7001899,1761934019463400,-0.001362,-0.004760,-0.003789,-0.812530,-0.742873,-9.741672
7006294,1761934019467795,0.001075,-0.003901,-0.001330,-0.803037,-0.757259,-9.709815
7010119,1761934019471620,0.000641,-0.000644,0.000312,-0.796644,-0.754048,-9.717780
7014405,1761934019475906,-0.002155,-0.005591,0.001529,-0.803076,-0.746168,-9.722551
7017105,1761934019478605,0.003488,0.001401,-0.000899,-0.809389,-0.744522,-9.733725
7021231,1761934019482732,-0.002618,-0.002308,-0.001335,-0.802967,-0.760452,-9.725752
7029637,1761934019491138,0.001060,-0.000642,-0.000098,-0.798194,-0.760512,-9.720906
7032339,1761934019493840,-0.001409,0.000566,-0.002146,-0.791874,-0.757228,-9.711397
7036626,1761934019498127,-0.002237,-0.000272,-0.004195,-0.804614,-0.752529,-9.709815
7047642,1761934019509143,0.001031,0.002637,0.000317,-0.809366,-0.755679,-9.714643
7051772,1761934019513273,0.001471,-0.000637,-0.000097,-0.782331,-0.746055,-9.725730
7055933,1761934019517433,0.000686,-0.001054,-0.001321,-0.810872,-0.763678,-9.740049
7061492,1761934019522992,-0.000145,-0.002714,0.000724,-0.809329,-0.754111,-9.728952
7072601,1761934019534102,-0.000193,0.000985,-0.000915,-0.801338,-0.766814,-9.730488
7076889,1761934019538390,-0.002577,-0.003123,-0.001747,-0.799791,-0.760390,-9.720930
7081018,1761934019542518,-0.000591,0.000997,-0.003786,-0.798159,-0.763609,-9.722519
7085153,1761934019546653,0.002321,-0.001871,-0.002548,-0.796718,-0.741378,-9.708237
7087853,1761934019549354,0.003503,-0.000647,-0.002125,-0.807753,-0.755645,-9.720954
7092138,1761934019553638,-0.001371,-0.004362,-0.000921,-0.810960,-0.744478,-9.735300
7096265,1761934019557766,0.000603,0.004243,-0.002131,-0.804624,-0.750922,-9.714606
7107417,1761934019568918,0.001060,0.001391,-0.000093,-0.811063,-0.739789,-9.711429
7111544,1761934019573045,-0.000578,0.002219,-0.003786,-0.799891,-0.730156,-9.716223
7115672,1761934019577172,-0.001848,0.000970,-0.000916,-0.810969,-0.744572,-9.727286
7118530,1761934019580031,0.000666,-0.001862,-0.001736,-0.815717,-0.755654,-9.732115
7122658,1761934019584159,-0.000997,-0.003111,-0.002970,-0.790280,-0.752333,-9.733736
7126793,1761934019588294,-0.003391,-0.003125,-0.002164,-0.793512,-0.750913,-9.705048
7130921,1761934019592421,-0.001415,0.000152,-0.002965,-0.803096,-0.750912,-9.705042
7142059,1761934019603560,0.001873,-0.002300,-0.002131,-0.809421,-0.750907,-9.709815
7146188,1761934019607689,-0.001792,-0.001879,-0.002151,-0.795093,-0.760381,-9.705030
7149047,1761934019610548,-0.000574,-0.000264,-0.000505,-0.801469,-0.739755,-9.727324
7153175,1761934019614676,0.005144,0.003081,-0.000901,-0.809442,-0.741372,-9.717775
7157305,1761934019618806,-0.003850,-0.000679,-0.000518,-0.806148,-0.761990,-9.728904
7161434,1761934019622935,-0.002602,-0.001909,0.000305,-0.787076,-0.757220,-9.725716
7164295,1761934019625796,0.002327,-0.002270,-0.002550,-0.788661,-0.755608,-9.725747
7176686,1761934019638187,-0.001811,0.000970,-0.000504,-0.790179,-0.770000,-9.730502
7182453,1761934019643954,-0.000572,-0.000654,-0.000509,-0.793448,-0.758749,-9.720979
7183747,1761934019645248,-0.002216,0.000151,-0.000922,-0.790307,-0.744456,-9.725734
7187886,1761934019649386,-0.001367,-0.001482,-0.001740,-0.799802,-0.752462,-9.724163
7192043,1761934019653544,-0.001791,-0.003955,-0.001327,-0.795008,-0.749310,-9.735267
7194759,1761934019656260,-0.002628,-0.004369,-0.001331,-0.798251,-0.750883,-9.716159
