monotonic_ns,timestamp_ns,time_s,status,pqr_P_rad_s,pqr_Q_rad_s,pqr_R_rad_s,acc_X_m_s2,acc_Y_m_s2,acc_Z_m_s2
335092,1763493606698504948,377706.578346,4128768,-0.000573,0.000171,-0.000575,0.375730,-9.744110,-0.801113
367314,1763493606698537189,377706.579346,4128768,0.001469,0.000204,0.000676,0.370989,-9.748923,-0.804302
387128,1763493606698557003,377706.580346,4128768,-0.000167,-0.000657,0.000279,0.377240,-9.742477,-0.793103
406499,1763493606698576355,377706.581346,4128768,-0.000139,-0.001456,-0.001378,0.367741,-9.742599,-0.799597
425888,1763493606698595744,377706.582346,4128768,0.001900,0.002241,-0.002201,0.374186,-9.756938,-0.812145
445332,1763493606698615207,377706.583346,4128768,0.002716,0.002261,-0.003017,0.372519,-9.736243,-0.812232
464684,1763493606698634540,377706.584346,4128768,0.004750,-0.002699,-0.000513,0.367577,-9.739311,-0.789963
484054,1763493606698653929,377706.585346,4128768,-0.000979,-0.001460,0.001875,0.367640,-9.747299,-0.783637
513332,1763493606698683188,377706.586346,4128768,0.001876,0.001008,0.001089,0.380489,-9.732957,-0.796374
542350,1763493606698712225,377706.587346,4128768,-0.000115,-0.001493,-0.003842,0.364557,-9.740954,-0.801212
579368,1763493606698749243,377706.588346,4128768,0.003114,-0.003520,-0.000943,0.377286,-9.744091,-0.793124
927145,1763493606699096927,377706.589346,4128768,0.001895,0.000590,-0.001374,0.383638,-9.747304,-0.796178
1916790,1763493606700086572,377706.590346,4128768,0.000655,-0.000211,0.000243,0.366127,-9.744167,-0.796366
2895768,1763493606701065568,377706.591346,4128768,0.001085,0.000575,-0.001370,0.366199,-9.749015,-0.810644
3874709,1763493606702044491,377706.592346,4128768,0.001096,-0.003918,-0.000130,0.361338,-9.755424,-0.807407
4869335,1763493606703039117,377706.593346,4128768,0.005602,-0.000248,-0.002574,0.358160,-9.752155,-0.796397
6006831,1763493606704176613,377706.594346,4128768,0.000257,0.000599,-0.002608,0.366074,-9.742587,-0.801125
6985179,1763493606705154980,377706.595346,4128768,0.001884,-0.001444,-0.000966,0.364428,-9.739357,-0.799495
7963990,1763493606706133791,377706.596346,4128768,0.001059,0.000606,0.001081,0.364536,-9.744155,-0.798009
8982968,1763493606707152769,377706.597346,4128768,0.002303,-0.000618,0.001092,0.361490,-9.753767,-0.815452
9963150,1763493606708132969,377706.598346,4128768,-0.003835,-0.001890,-0.000991,0.369258,-9.753788,-0.794693
10941609,1763493606709111429,377706.599346,4128768,-0.001015,0.000615,0.001473,0.356585,-9.741068,-0.798117
11935698,1763493606710105480,377706.600346,4128768,0.001913,0.000604,-0.001365,0.367691,-9.739412,-0.801131
12916343,1763493606711086125,377706.601346,4128768,0.000307,-0.000233,-0.004252,0.374142,-9.764973,-0.797812
13895302,1763493606712065103,377706.602346,4128768,-0.000558,-0.000659,-0.001380,0.366035,-9.745729,-0.775756
14873706,1763493606713043507,377706.603346,4128768,0.000208,0.001013,0.002303,0.377249,-9.737720,-0.786842
15852388,1763493606714022170,377706.604346,4128768,0.002307,-0.004347,-0.000957,0.374234,-9.750631,-0.818503
16989513,1763493606715159314,377706.605346,4128768,0.004740,-0.000218,-0.000946,0.382092,-9.748934,-0.796191
17968343,1763493606716138126,377706.606346,4128768,0.002725,-0.000224,-0.001786,0.370869,-9.729713,-0.797975
18971877,1763493606717141659,377706.607346,4128768,-0.001810,0.000191,0.000241,0.377163,-9.733030,-0.785258
19950818,1763493606718120618,377706.608346,4128768,0.004381,-0.001871,-0.003815,0.359729,-9.752125,-0.783692
20930647,1763493606719100448,377706.609346,4128768,0.000271,0.000991,-0.002195,0.359695,-9.744219,-0.805854
21909162,1763493606720078945,377706.610346,4128768,0.002288,0.001007,-0.000539,0.366132,-9.752125,-0.804204
22887881,1763493606721057682,377706.611346,4128768,-0.000542,-0.001479,-0.001364,0.351754,-9.758509,-0.788439
23879655,1763493606722049456,377706.612346,4128768,0.001493,0.001835,-0.001372,0.366278,-9.742633,-0.813920
24860578,1763493606723030360,377706.613346,4128768,-0.002167,-0.000672,-0.002624,0.369311,-9.747412,-0.804287
25854371,1763493606724024171,377706.614346,4128768,-0.000147,-0.002301,-0.002601,0.364632,-9.744177,-0.812298
26859145,1763493606725028946,377706.615346,4128768,-0.001330,-0.003973,-0.004670,0.347062,-9.750576,-0.799688
27859456,1763493606726029238,377706.616346,4128768,-0.001773,0.000585,-0.004271,0.367714,-9.750570,-0.801102
28876230,1763493606727045975,377706.617346,4128768,-0.000125,0.002645,-0.003861,0.370874,-9.736194,-0.801121
29855171,1763493606728024953,377706.618346,4128768,0.001495,0.000156,-0.004248,0.367805,-9.744164,-0.805917
31003908,1763493606729173690,377706.619346,4128768,0.005993,0.002255,-0.001756,0.359794,-9.761729,-0.805825
31983441,1763493606730153261,377706.620346,4128768,0.000638,-0.000252,-0.000562,0.367690,-9.752144,-0.791574
32976697,1763493606731146498,377706.621346,4128768,0.003516,0.003034,-0.003025,0.361162,-9.750460,-0.780447
33955212,1763493606732124994,377706.622346,4128768,0.002295,0.002248,-0.000147,0.367691,-9.742538,-0.797944
34933671,1763493606733103472,377706.623346,4128768,0.002321,0.002655,-0.002197,0.370823,-9.747343,-0.796310
35912020,1763493606734081821,377706.624346,4128768,0.003115,-0.004729,-0.000120,0.367724,-9.747349,-0.797944
36891590,1763493606735061373,377706.625346,4128768,0.000687,0.000582,-0.002617,0.358145,-9.737812,-0.807542
37869809,1763493606736039610,377706.626346,4128768,0.002715,0.002239,-0.000954,0.367712,-9.748913,-0.807410
38860213,1763493606737030014,377706.627346,4128768,0.002267,0.001018,-0.000558,0.367738,-9.745778,-0.801073
39864228,1763493606738034047,377706.628346,4128768,0.000654,-0.000636,0.000261,0.366102,-9.750514,-0.796273
41002631,1763493606739172413,377706.629346,4128768,0.002729,-0.001473,-0.001357,0.374120,-9.745747,-0.793173
41980868,1763493606740150669,377706.630346,4128768,-0.000545,-0.000230,-0.001790,0.366031,-9.745777,-0.791559
42959365,1763493606741129147,377706.631346,4128768,-0.000172,0.001013,0.000648,0.370929,-9.734579,-0.794842
43937824,1763493606742107607,377706.632346,4128768,0.002302,0.003079,-0.001384,0.375736,-9.737739,-0.805873
44917321,1763493606743087103,377706.633346,4128768,-0.000965,-0.000625,-0.000565,0.370979,-9.742556,-0.809097
45895577,1763493606744065377,377706.634346,4128768,-0.000978,0.000177,0.000655,0.364473,-9.744131,-0.796357
46886536,1763493606745056337,377706.635346,4128768,-0.000984,0.002249,-0.001396,0.366129,-9.739291,-0.797989
47864977,1763493606746034759,377706.636346,4128768,0.003549,0.000992,-0.002997,0.367555,-9.747341,-0.786715
48861381,1763493606747031163,377706.637346,4128768,0.001100,0.000587,-0.001778,0.369372,-9.742649,-0.802783
49998803,1763493606748168603,377706.638346,4128768,-0.004643,-0.002726,-0.002233,0.374149,-9.750568,-0.802630
50976984,1763493606749146785,377706.639346,4128768,0.002300,0.001014,0.000273,0.372653,-9.745772,-0.809129
51955296,1763493606750125096,377706.640346,4128768,-0.000173,-0.001071,-0.000557,0.364497,-9.740863,-0.780549
52934885,1763493606751104667,377706.641346,4128768,-0.003816,-0.002726,-0.001800,0.362774,-9.744075,-0.780513
53938640,1763493606752108460,377706.642346,4128768,-0.000958,-0.002701,-0.002205,0.359721,-9.744143,-0.796408
54917100,1763493606753086882,377706.643346,4128768,0.001069,-0.001062,-0.000563,0.359736,-9.739378,-0.807505
55895559,1763493606754065360,377706.644346,4128768,-0.001818,0.000189,0.001068,0.362889,-9.737836,-0.802773
56875593,1763493606755045375,377706.645346,4128768,-0.001777,-0.000260,-0.002213,0.374086,-9.740934,-0.794744
57863978,1763493606756033760,377706.646346,4128768,-0.001406,0.000194,0.001862,0.367752,-9.736182,-0.799645
58863660,1763493606757033461,377706.647346,4128768,-0.001344,-0.001493,-0.001794,0.366121,-9.740932,-0.801203
60001489,1763493606758171271,377706.648346,4128768,-0.001780,-0.000662,-0.000970,0.377399,-9.753688,-0.805803
60996059,1763493606759165842,377706.649346,4128768,-0.000138,0.001416,-0.002628,0.367677,-9.747334,-0.794727
61975260,1763493606760145042,377706.650346,4128768,0.000262,-0.000647,-0.001388,0.381998,-9.740910,-0.802554
62954775,1763493606761124576,377706.651346,4128768,-0.001371,-0.001901,-0.002206,0.375579,-9.723338,-0.788453
63933271,1763493606762103072,377706.652346,4128768,-0.000544,-0.001902,-0.001801,0.372642,-9.755321,-0.804264
64913083,1763493606763082865,377706.653346,4128768,-0.002167,-0.002317,-0.003027,0.380567,-9.745754,-0.807387
65912190,1763493606764081972,377706.654346,4128768,-0.001775,-0.006005,-0.000546,0.385256,-9.747347,-0.802566
66890816,1763493606765060598,377706.655346,4128768,-0.004625,-0.003565,-0.003858,0.380348,-9.737722,-0.791519
67884257,1763493606766054058,377706.656346,4128768,0.002347,-0.001073,-0.005865,0.367625,-9.750546,-0.788385
68879068,1763493606767048869,377706.657346,4128768,-0.001812,-0.001049,0.001469,0.366119,-9.752134,-0.791564
69866046,1763493606768035847,377706.658346,4128768,-0.000161,0.001014,-0.000979,0.366097,-9.745802,-0.796353
71003079,1763493606769172862,377706.659346,4128768,-0.001369,-0.004348,0.000674,0.364556,-9.744223,-0.809086
71981428,1763493606770151228,377706.660346,4128768,-0.000162,-0.000638,0.000261,0.369374,-9.747383,-0.805884
72961072,1763493606771130855,377706.661346,4128768,0.001892,-0.001466,-0.000544,0.361471,-9.750546,-0.805939
73939532,1763493606772109314,377706.662346,4128768,-0.000981,-0.002687,-0.001390,0.361291,-9.736190,-0.796402
74932676,1763493606773102477,377706.663346,4128768,-0.003812,-0.001888,-0.001400,0.367814,-9.742613,-0.804369
75911136,1763493606774080937,377706.664346,4128768,0.000260,-0.004758,-0.001372,0.366079,-9.749018,-0.801093
76891021,1763493606775060785,377706.665346,4128768,0.001916,-0.001489,-0.002999,0.380369,-9.752133,-0.789830
77869166,1763493606776038948,377706.666346,4128768,-0.000980,-0.001884,-0.001378,0.369417,-9.748987,-0.807477
78866273,1763493606777036037,377706.667346,4128768,-0.000987,-0.001467,0.000660,0.369369,-9.739378,-0.804347
80003603,1763493606778173385,377706.668346,4128768,0.002727,0.000166,-0.003008,0.361356,-9.742568,-0.798058
80983247,1763493606779153048,377706.669346,4128768,0.004346,0.000612,-0.001353,0.377301,-9.740969,-0.802688
81976373,1763493606780146193,377706.670346,4128768,-0.000535,-0.001870,0.000256,0.382098,-9.748888,-0.807344
82954407,1763493606781124208,377706.671346,4128768,-0.000958,0.000585,-0.002234,0.370830,-9.747294,-0.785217
83932848,1763493606782102630,377706.672346,4128768,0.000271,-0.000647,-0.002603,0.375686,-9.736132,-0.797932
84911326,1763493606783081108,377706.673346,4128768,-0.000176,-0.000651,-0.000979,0.370887,-9.739355,-0.801091
85889748,1763493606784059530,377706.674346,4128768,-0.000529,-0.001054,-0.005065,0.374148,-9.745728,-0.801106
86868633,1763493606785038416,377706.675346,4128768,0.003136,-0.005153,-0.000521,0.380468,-9.742518,-0.801054
87861556,1763493606786031338,377706.676346,4128768,-0.000946,0.000967,-0.004254,0.366134,-9.745840,-0.802746
88881737,1763493606787051520,377706.677346,4128768,0.000270,0.000603,-0.002633,0.374243,-9.756954,-0.809027
89872086,1763493606788041905,377706.678346,4128768,-0.003814,-0.000671,-0.002638,0.375729,-9.752124,-0.801059
90860601,1763493606789030383,377706.679346,4128768,0.002305,-0.001044,-0.001367,0.361370,-9.742609,-0.810712
91861227,1763493606790031028,377706.680346,4128768,0.001494,0.002236,-0.002616,0.374237,-9.728241,-0.828190
93002556,1763493606791172320,377706.681346,4128768,0.000671,-0.000231,-0.001389,0.362975,-9.750504,-0.805917
93982830,1763493606792152613,377706.682346,4128768,-0.000957,-0.003525,-0.001360,0.372542,-9.755328,-0.802629
94963012,1763493606793132794,377706.683346,4128768,0.000631,-0.000632,0.001080,0.369277,-9.752120,-0.791552
95958045,1763493606794127846,377706.684346,4128768,0.000654,-0.000218,0.001891,0.370990,-9.756887,-0.799451
96939357,1763493606795109139,377706.685346,4128768,0.002682,-0.001859,-0.000963,0.378933,-9.742537,-0.804259
97920057,1763493606796089876,377706.686346,4128768,-0.002216,0.000593,-0.000995,0.374124,-9.744185,-0.799520
98918146,1763493606797087928,377706.687346,4128768,-0.000159,0.002687,0.001469,0.370901,-9.739398,-0.796379
99898698,1763493606798068499,377706.688346,4128768,-0.000171,-0.001040,0.001086,0.372426,-9.734568,-0.796355
100880713,1763493606799050495,377706.689346,4128768,-0.000549,-0.000651,-0.002616,0.364567,-9.750507,-0.794820
101868913,1763493606800038714,377706.690346,4128768,-0.000119,0.001820,-0.005082,0.366110,-9.741009,-0.804315
102864761,1763493606801034562,377706.691346,4128768,0.002691,0.001025,0.000262,0.361312,-9.745819,-0.802771
104003331,1763493606802173132,377706.692346,4128768,-0.001390,-0.001878,-0.002205,0.350110,-9.741076,-0.802807
104984957,1763493606803154721,377706.693346,4128768,0.001105,0.002646,-0.003853,0.356604,-9.742629,-0.804401
105965398,1763493606804135218,377706.694346,4128768,-0.003032,0.002254,0.000639,0.374013,-9.739375,-0.801075
106945432,1763493606805115233,377706.695346,4128768,-0.005462,-0.000264,-0.002224,0.366090,-9.739321,-0.794835
107925595,1763493606806095377,377706.696346,4128768,-0.003853,-0.001034,0.001446,0.356693,-9.747401,-0.809194
108915999,1763493606807085800,377706.697346,4128768,0.001907,0.000176,-0.001778,0.370957,-9.755358,-0.802656
109910014,1763493606808079796,377706.698346,4128768,0.000650,-0.000642,-0.000563,0.361497,-9.752220,-0.812293
110890529,1763493606809060311,377706.699346,4128768,-0.000972,0.001017,-0.000582,0.378836,-9.747469,-0.799443
111870729,1763493606810040530,377706.700346,4128768,-0.000561,-0.003110,-0.000569,0.364618,-9.736207,-0.815534
113009707,1763493606811179489,377706.701346,4128768,-0.002598,-0.001473,-0.000983,0.355020,-9.737869,-0.807633
113990055,1763493606812159837,377706.702346,4128768,-0.003064,0.001025,0.002696,0.374161,-9.745830,-0.804307
114970533,1763493606813140334,377706.703346,4128768,-0.001390,-0.000210,-0.000992,0.378974,-9.745769,-0.812161
115950807,1763493606814120608,377706.704346,4128768,0.003503,-0.003923,0.001092,0.369347,-9.745750,-0.807437
116947248,1763493606815117030,377706.705346,4128768,0.003514,-0.003098,-0.000536,0.366190,-9.750576,-0.810633
117927022,1763493606816096823,377706.706346,4128768,-0.002576,-0.000666,-0.003036,0.367809,-9.744186,-0.804307
118929426,1763493606817099208,377706.707346,4128768,0.003518,0.002687,-0.001786,0.362862,-9.739332,-0.790039
119911089,1763493606818080909,377706.708346,4128768,0.002281,-0.001054,0.000263,0.361367,-9.737830,-0.809181
120892678,1763493606819062461,377706.709346,4128768,-0.000546,-0.003133,-0.001774,0.359818,-9.736252,-0.809221
121873286,1763493606820043068,377706.710346,4128768,-0.002187,-0.001055,-0.000988,0.361414,-9.753817,-0.809090
122866245,1763493606821036046,377706.711346,4128768,-0.003000,-0.000663,-0.003863,0.374116,-9.747328,-0.807428
123881705,1763493606822051505,377706.712346,4128768,-0.000138,-0.002306,0.000690,0.375648,-9.752128,-0.804187
124881608,1763493606823051261,377706.713346,4128768,-0.003009,-0.004374,-0.000973,0.358045,-9.750608,-0.789990
125866383,1763493606824036184,377706.714346,4128768,-0.000575,-0.003527,0.000683,0.369322,-9.752188,-0.801036
127002916,1763493606825172717,377706.715346,4128768,0.000665,-0.001049,-0.000973,0.372540,-9.755356,-0.804218
127868376,1763493606826038176,377706.716346,4128768,0.000291,-0.002295,-0.003011,0.367686,-9.752129,-0.797888
128866594,1763493606827036358,377706.717346,4128768,0.003536,-0.001449,-0.000554,0.353215,-9.739310,-0.788501
130004405,1763493606828174206,377706.718346,4128768,-0.000574,-0.000666,-0.000577,0.370854,-9.745745,-0.791581
130997975,1763493606829167795,377706.719346,4128768,0.002306,-0.000206,-0.001375,0.367724,-9.740954,-0.799572
131976453,1763493606830146254,377706.720346,4128768,-0.001380,-0.002697,0.000662,0.350331,-9.741035,-0.813995
132956413,1763493606831126195,377706.721346,4128768,0.001875,0.000616,0.001094,0.369419,-9.753753,-0.807491
133934835,1763493606832104618,377706.722346,4128768,-0.001769,-0.001471,-0.001398,0.366134,-9.749006,-0.802742
134912943,1763493606833082744,377706.723346,4128768,-0.001361,0.000152,-0.005075,0.363137,-9.747477,-0.820252
135891328,1763493606834061111,377706.724346,4128768,-0.004229,-0.003140,-0.002214,0.378852,-9.747255,-0.783627
136876566,1763493606835046366,377706.725346,4128768,0.002297,-0.003527,0.000281,0.361540,-9.764975,-0.816997
137885580,1763493606836055400,377706.726346,4128768,0.001070,-0.001058,-0.001791,0.362913,-9.760157,-0.796266
138893595,1763493606837063359,377706.727346,4128768,0.004784,-0.002301,-0.004203,0.374065,-9.750526,-0.793110
139875129,1763493606838044930,377706.728346,4128768,0.002290,0.000217,0.001091,0.364495,-9.745747,-0.788456
141016384,1763493606839186148,377706.729346,4128768,0.001517,0.000997,-0.002613,0.367686,-9.732955,-0.796426
141996566,1763493606840166348,377706.730346,4128768,0.004379,0.001408,-0.003814,0.356510,-9.737824,-0.804353
142976896,1763493606841146678,377706.731346,4128768,0.001098,0.000612,-0.000977,0.372523,-9.740893,-0.807435
143957225,1763493606842127026,377706.732346,4128768,0.002663,0.001450,0.003121,0.375618,-9.739273,-0.799475
144953925,1763493606843123708,377706.733346,4128768,0.001891,-0.000629,-0.000148,0.361387,-9.745734,-0.802825
145934478,1763493606844104260,377706.734346,4128768,0.001879,0.001834,-0.001373,0.359712,-9.755388,-0.797914
146915030,1763493606845084830,377706.735346,4128768,0.002283,0.000195,0.001095,0.367712,-9.739315,-0.801160
147895711,1763493606846065512,377706.736346,4128768,0.001096,-0.002301,-0.001374,0.364529,-9.750560,-0.802698
148885985,1763493606847055749,377706.737346,4128768,-0.000539,-0.001878,-0.003015,0.369424,-9.761774,-0.812152
149867112,1763493606848036894,377706.738346,4128768,-0.001410,0.000615,0.001059,0.359775,-9.753771,-0.797933
151006200,1763493606849175982,377706.739346,4128768,0.000622,0.000621,0.001880,0.380550,-9.752159,-0.808923
152001141,1763493606850170923,377706.740346,4128768,0.002709,-0.001082,-0.004628,0.358215,-9.744184,-0.807555
152981934,1763493606851151735,377706.741346,4128768,0.002295,-0.001466,-0.001772,0.363056,-9.739374,-0.807604
153962208,1763493606852131990,377706.742346,4128768,0.006441,0.000608,-0.004216,0.364532,-9.760126,-0.789936
154942519,1763493606853112302,377706.743346,4128768,-0.000138,-0.000655,-0.002183,0.382145,-9.752147,-0.801027
155922849,1763493606854092650,377706.744346,4128768,0.003123,-0.000646,-0.001353,0.362923,-9.755247,-0.791596
156904216,1763493606855073980,377706.745346,4128768,0.001069,0.001437,-0.001383,0.369428,-9.731438,-0.817108
157884953,1763493606856054736,377706.746346,4128768,0.003120,-0.005181,-0.002570,0.359786,-9.736259,-0.812356
158911431,1763493606857081213,377706.747346,4128768,-0.000158,0.001016,-0.000571,0.359643,-9.748995,-0.796305
159891946,1763493606858061765,377706.748346,4128768,0.000689,-0.000675,-0.002187,0.377216,-9.747286,-0.793114
160878054,1763493606859047743,377706.749346,4128768,0.003548,-0.004365,-0.002149,0.366063,-9.739359,-0.794824
161873624,1763493606860043425,377706.750346,4128768,0.001496,0.001408,-0.000967,0.364581,-9.747372,-0.805941
163010602,1763493606861180421,377706.751346,4128768,-0.002596,-0.000250,0.000255,0.367805,-9.752125,-0.801177
163989246,1763493606862159029,377706.752346,4128768,0.004754,0.000613,-0.001359,0.372689,-9.766579,-0.816875
165001039,1763493606863170821,377706.753346,4128768,0.000681,0.001830,-0.003025,0.364557,-9.760158,-0.796308
165994609,1763493606864164410,377706.754346,4128768,0.000643,-0.001868,0.001085,0.359786,-9.750530,-0.802742
166973439,1763493606865143222,377706.755346,4128768,-0.000160,0.000186,-0.001815,0.372548,-9.742537,-0.797964
167951954,1763493606866121755,377706.756346,4128768,-0.000179,-0.001863,0.001485,0.375771,-9.755347,-0.797879
168941136,1763493606867110918,377706.757346,4128768,0.003945,-0.000240,-0.002179,0.369290,-9.745763,-0.801104
169920540,1763493606868090322,377706.758346,4128768,0.000225,-0.002694,0.000259,0.356540,-9.755420,-0.791645
170899018,1763493606869068819,377706.759346,4128768,0.001075,0.001836,-0.002625,0.378876,-9.760197,-0.810470
171877588,1763493606870047371,377706.760346,4128768,-0.001000,-0.002265,0.004362,0.375543,-9.747314,-0.786735
172877548,1763493606871047330,377706.761346,4128768,0.003549,-0.001484,-0.003813,0.378892,-9.756903,-0.799424
173858155,1763493606872027956,377706.762346,4128768,0.000271,-0.000240,-0.003838,0.386893,-9.742541,-0.804199
174857633,1763493606873027453,377706.763346,4128768,0.002718,0.001427,-0.001791,0.372504,-9.748903,-0.797913
175857963,1763493606874027764,377706.764346,4128768,-0.001771,-0.002283,-0.002604,0.372409,-9.740919,-0.791567
177004866,1763493606875174649,377706.765346,4128768,0.002322,-0.001871,-0.000545,0.367791,-9.747324,-0.794856
177985233,1763493606876155015,377706.766346,4128768,0.000284,0.000589,-0.002622,0.366206,-9.739393,-0.802838
178982618,1763493606877152419,377706.767346,4128768,0.000291,-0.000660,-0.005055,0.366260,-9.749007,-0.809072
179978763,1763493606878148564,377706.768346,4128768,0.000679,0.001803,-0.003438,0.367688,-9.745731,-0.797922
180960630,1763493606879130412,377706.769346,4128768,0.001471,-0.002286,-0.000551,0.353214,-9.739346,-0.783696
181941237,1763493606880111057,377706.770346,4128768,0.000241,0.000995,0.000254,0.370943,-9.736153,-0.799579
182921104,1763493606881090924,377706.771346,4128768,-0.000551,-0.004775,-0.001369,0.369400,-9.745696,-0.802729
183902008,1763493606882071791,377706.772346,4128768,0.001523,-0.000659,-0.005052,0.366250,-9.755386,-0.805884
184883412,1763493606883053194,377706.773346,4128768,0.000261,0.001815,-0.003441,0.361362,-9.750546,-0.796408
185863835,1763493606884033635,377706.774346,4128768,0.001910,0.000191,-0.002193,0.366107,-9.737827,-0.798016
186859368,1763493606885029187,377706.775346,4128768,-0.000549,-0.000228,-0.000980,0.364547,-9.752140,-0.801112
187861438,1763493606886031239,377706.776346,4128768,-0.002220,-0.000622,0.001047,0.367590,-9.744122,-0.790024
188875787,1763493606887045569,377706.777346,4128768,-0.001371,-0.001479,-0.001396,0.361418,-9.747400,-0.810691
189873728,1763493606888043528,377706.778346,4128768,-0.000156,-0.001456,0.000670,0.369343,-9.764887,-0.797860
190854391,1763493606889024173,377706.779346,4128768,-0.000980,0.000620,0.001057,0.363004,-9.739332,-0.794904
191993535,1763493606890163317,377706.780346,4128768,-0.002214,-0.000219,-0.000183,0.370800,-9.744089,-0.791541
192973976,1763493606891143777,377706.781346,4128768,0.001895,-0.000227,-0.000550,0.372472,-9.742496,-0.801089
193989176,1763493606892158995,377706.782346,4128768,-0.000979,-0.000620,-0.000159,0.369292,-9.731424,-0.805890
194969357,1763493606893139140,377706.783346,4128768,-0.000547,0.001420,-0.003870,0.366079,-9.736232,-0.799612
195950132,1763493606894119933,377706.784346,4128768,0.003084,0.001432,0.000266,0.358225,-9.739417,-0.807567
196931573,1763493606895101355,377706.785346,4128768,-0.002203,-0.000649,-0.000172,0.364564,-9.742554,-0.788523
197912106,1763493606896081888,377706.786346,4128768,0.001075,0.001412,-0.003443,0.362938,-9.739352,-0.785351
198908529,1763493606897078311,377706.787346,4128768,-0.000970,-0.003961,-0.000158,0.370922,-9.745735,-0.799520
199889488,1763493606898059289,377706.788346,4128768,-0.000149,-0.001866,0.000261,0.358164,-9.745724,-0.798056
200911207,1763493606899080970,377706.789346,4128768,-0.000156,-0.000241,-0.000969,0.377350,-9.742614,-0.812253
201891499,1763493606900061282,377706.790346,4128768,0.001091,-0.002332,-0.004663,0.366145,-9.752163,-0.797929
202871588,1763493606901041371,377706.791346,4128768,0.002329,-0.000648,-0.003821,0.361322,-9.750589,-0.796372
204010510,1763493606902180311,377706.792346,4128768,-0.003407,-0.003550,-0.003039,0.377237,-9.747355,-0.796273
204990766,1763493606903160567,377706.793346,4128768,0.001886,-0.000632,0.000665,0.366145,-9.736250,-0.809104
205971059,1763493606904140841,377706.794346,4128768,0.002276,-0.003520,0.000285,0.363000,-9.755358,-0.805865
206951500,1763493606905121301,377706.795346,4128768,-0.001357,0.000572,-0.004261,0.367682,-9.748923,-0.788416
207946237,1763493606906116019,377706.796346,4128768,0.000633,-0.003115,0.001903,0.374112,-9.750589,-0.799481
208945048,1763493606907114812,377706.797346,4128768,0.001884,0.001449,-0.000983,0.359578,-9.745760,-0.793136
209925971,1763493606908095771,377706.798346,4128768,-0.003015,0.000196,0.001461,0.371016,-9.760135,-0.804177
210906208,1763493606909075990,377706.799346,4128768,-0.002218,-0.001469,0.001480,0.358197,-9.744209,-0.812280
211886649,1763493606910056431,377706.800346,4128768,-0.000143,-0.003947,-0.000961,0.361480,-9.747376,-0.809171
212867182,1763493606911036965,377706.801346,4128768,-0.000135,0.000609,-0.001391,0.361479,-9.752218,-0.810716
214006289,1763493606912176072,377706.802346,4128768,0.005521,-0.001043,0.000696,0.358114,-9.753732,-0.797930
215001489,1763493606913171272,377706.803346,4128768,0.003141,-0.001445,-0.000552,0.359770,-9.742624,-0.798023
215981727,1763493606914151509,377706.804346,4128768,0.001510,0.001025,-0.002205,0.369322,-9.758525,-0.804175
216963445,1763493606915133246,377706.805346,4128768,-0.001387,0.001000,-0.000579,0.356641,-9.753818,-0.809121
217943720,1763493606916113502,377706.806346,4128768,0.002729,-0.003133,-0.002972,0.380473,-9.748996,-0.805796
218932698,1763493606917102461,377706.807346,4128768,0.001488,-0.004777,-0.003014,0.382171,-9.740938,-0.809020
219913324,1763493606918083125,377706.808346,4128768,0.003128,-0.000216,-0.002181,0.370931,-9.747309,-0.799549
220894635,1763493606919064436,377706.809346,4128768,0.004759,-0.001884,-0.001364,0.372479,-9.745759,-0.797931
221890224,1763493606920060025,377706.810346,4128768,0.001084,0.002252,-0.000559,0.367730,-9.739403,-0.801166
222870702,1763493606921040484,377706.811346,4128768,0.000667,-0.002712,-0.002197,0.354920,-9.740908,-0.788534
224009457,1763493606922179239,377706.812346,4128768,0.000276,-0.000643,-0.003027,0.378994,-9.752098,-0.812168
224991120,1763493606923160921,377706.813346,4128768,0.000670,-0.000214,-0.002210,0.375751,-9.755371,-0.797866
225971043,1763493606924140862,377706.814346,4128768,0.001892,-0.000647,-0.000548,0.367722,-9.737757,-0.796457
226950947,1763493606925120729,377706.815346,4128768,0.004324,-0.000627,0.000285,0.361409,-9.760116,-0.796391
227949480,1763493606926119281,377706.816346,4128768,0.001481,-0.000190,-0.001393,0.364615,-9.756954,-0.796380
228961588,1763493606927131370,377706.817346,4128768,0.005171,-0.000631,-0.000117,0.375753,-9.756945,-0.805804
229942158,1763493606928111940,377706.818346,4128768,0.005138,-0.003541,-0.000931,0.361436,-9.753744,-0.813858
230922636,1763493606929092437,377706.819346,4128768,0.001089,0.002240,-0.002623,0.369298,-9.747323,-0.796350
231902929,1763493606930072730,377706.820346,4128768,0.001468,-0.003121,-0.000138,0.369243,-9.740938,-0.788447
232884462,1763493606931054245,377706.821346,4128768,0.005146,0.000184,-0.001356,0.370726,-9.745689,-0.782026
233864663,1763493606932034463,377706.822346,4128768,0.003526,0.002245,-0.001776,0.354869,-9.748920,-0.788515
234855992,1763493606933025775,377706.823346,4128768,0.001121,-0.001491,-0.005883,0.374036,-9.731340,-0.793221
235851137,1763493606934020938,377706.824346,4128768,-0.000084,0.001379,-0.007533,0.366115,-9.723415,-0.806018
236991188,1763493606935160971,377706.825346,4128768,0.003946,0.001017,-0.002187,0.364566,-9.737780,-0.802797
237971518,1763493606936141319,377706.826346,4128768,0.000249,0.000184,-0.000970,0.363047,-9.736227,-0.809179
238960959,1763493606937130723,377706.827346,4128768,-0.000559,-0.001904,-0.001386,0.363086,-9.755302,-0.805949
239941567,1763493606938111349,377706.828346,4128768,0.001875,-0.001033,-0.000552,0.375672,-9.748875,-0.788368
240923637,1763493606939093420,377706.829346,4128768,0.003917,0.003906,0.000672,0.362742,-9.756839,-0.785108
241904152,1763493606940073935,377706.830346,4128768,0.001092,-0.001483,-0.003835,0.362825,-9.755281,-0.791539
242899501,1763493606941069283,377706.831346,4128768,0.002693,-0.001449,-0.000548,0.369311,-9.732924,-0.796444
243879719,1763493606942049520,377706.832346,4128768,0.002704,-0.000219,0.000679,0.372511,-9.726614,-0.807556
244868234,1763493606943038035,377706.833346,4128768,0.002287,0.000207,0.003533,0.364482,-9.752153,-0.790034
245858583,1763493606944028365,377706.834346,4128768,0.001902,0.000179,-0.002597,0.359791,-9.753786,-0.805901
246997949,1763493606945167750,377706.835346,4128768,-0.000979,-0.000198,0.001059,0.351863,-9.749010,-0.807624
247977705,1763493606946147524,377706.836346,4128768,-0.001404,0.001036,0.001046,0.372743,-9.750590,-0.818637
248975016,1763493606947144780,377706.837346,4128768,0.000246,0.000612,-0.000586,0.350242,-9.758586,-0.799634
249970568,1763493606948140387,377706.838346,4128768,0.001481,-0.000230,-0.001382,0.362962,-9.755402,-0.804241
250950953,1763493606949120736,377706.839346,4128768,0.000275,0.000179,-0.003023,0.377384,-9.756989,-0.812120
251930987,1763493606950100788,377706.840346,4128768,0.001075,-0.001883,-0.003012,0.366297,-9.755397,-0.820161
252912520,1763493606951082303,377706.841346,4128768,-0.002594,-0.003130,-0.000143,0.377141,-9.745741,-0.785136
253892665,1763493606952062447,377706.842346,4128768,0.000717,-0.001886,-0.004645,0.383567,-9.737701,-0.794673
254873069,1763493606953042851,377706.843346,4128768,0.002753,-0.003957,-0.006680,0.358220,-9.752141,-0.807513
255853547,1763493606954023329,377706.844346,4128768,-0.000179,0.002260,0.001061,0.361246,-9.748934,-0.796360
256860562,1763493606955030344,377706.845346,4128768,-0.002179,0.002234,-0.002226,0.367625,-9.747301,-0.788436
257999984,1763493606956169784,377706.846346,4128768,-0.000547,0.000560,-0.003438,0.377282,-9.745702,-0.799496
258988850,1763493606957158633,377706.847346,4128768,-0.002210,-0.000647,-0.000584,0.377263,-9.747353,-0.796301
259969495,1763493606958139277,377706.848346,4128768,-0.001819,-0.001451,0.000642,0.358213,-9.739424,-0.807615
260951158,1763493606959120829,377706.849346,4128768,-0.002143,-0.005192,-0.003008,0.361343,-9.731408,-0.804410
261931581,1763493606960101381,377706.850346,4128768,0.001910,-0.003532,-0.002174,0.358227,-9.739429,-0.813919
262912355,1763493606961082156,377706.851346,4128768,-0.005031,-0.003567,-0.001816,0.358178,-9.744152,-0.799605
263917222,1763493606962087022,377706.852346,4128768,-0.003015,-0.001894,-0.003040,0.372446,-9.740971,-0.796343
264916774,1763493606963086574,377706.853346,4128768,-0.002603,-0.002317,-0.002634,0.382105,-9.739346,-0.801089
265896937,1763493606964066756,377706.854346,4128768,-0.003843,-0.003548,-0.001005,0.353375,-9.752100,-0.798002
266877859,1763493606965047660,377706.855346,4128768,-0.003417,0.000168,-0.002633,0.353409,-9.737850,-0.815532
267857948,1763493606966027749,377706.856346,4128768,0.000690,-0.001458,-0.002607,0.361385,-9.750616,-0.804318
269013981,1763493606967183782,377706.857346,4128768,-0.002980,-0.003531,-0.002603,0.374196,-9.747381,-0.805855
269994607,1763493606968164427,377706.858346,4128768,-0.001808,0.001398,-0.002633,0.358119,-9.739422,-0.801237
270989622,1763493606969159405,377706.859346,4128768,-0.003449,-0.000643,0.001470,0.367658,-9.750580,-0.794783
271969952,1763493606970139734,377706.860346,4128768,-0.000939,-0.000227,-0.005070,0.372451,-9.739370,-0.794789
272950541,1763493606971120323,377706.861346,4128768,-0.002155,0.003884,-0.005105,0.375598,-9.731333,-0.794746
273930926,1763493606972100727,377706.862346,4128768,-0.002986,-0.000648,-0.002638,0.367690,-9.747359,-0.801114
274911293,1763493606973081094,377706.863346,4128768,-0.002170,-0.000658,-0.002623,0.361432,-9.747420,-0.817046
275891123,1763493606974060924,377706.864346,4128768,-0.006663,-0.003149,-0.004696,0.361420,-9.752165,-0.815430
276879509,1763493606975049291,377706.865346,4128768,-0.003014,-0.000675,-0.003861,0.355108,-9.748985,-0.809207
277873227,1763493606976043028,377706.866346,4128768,-0.004263,-0.001889,0.000638,0.377273,-9.747355,-0.805795
278863687,1763493606977033469,377706.867346,4128768,-0.002213,-0.000248,0.000242,0.364603,-9.755388,-0.804335
280002516,1763493606978172298,377706.868346,4128768,-0.002197,0.001017,-0.002649,0.361427,-9.737774,-0.802844
280984679,1763493606979154461,377706.869346,4128768,0.000239,-0.001054,0.000253,0.370937,-9.747416,-0.807437
281964898,1763493606980134699,377706.870346,4128768,-0.001778,-0.002306,-0.002626,0.359680,-9.739374,-0.796430
282945098,1763493606981114880,377706.871346,4128768,-0.003416,-0.002701,-0.000579,0.385258,-9.753764,-0.797780
283925391,1763493606982095173,377706.872346,4128768,-0.004655,-0.000655,-0.000600,0.372513,-9.744220,-0.804263
284921128,1763493606983090910,377706.873346,4128768,-0.001354,-0.000245,-0.004682,0.380536,-9.756915,-0.805744
285907365,1763493606984076962,377706.874346,4128768,-0.003801,-0.000250,-0.002642,0.372410,-9.748907,-0.796268
286896602,1763493606985066403,377706.875346,4128768,0.003930,0.001034,-0.001778,0.358176,-9.748966,-0.804325
287878080,1763493606986047863,377706.876346,4128768,0.000664,0.002249,-0.000158,0.358162,-9.748960,-0.801185
288906669,1763493606987076414,377706.877346,4128768,0.000701,-0.001455,-0.002584,0.385144,-9.737734,-0.789957
289908777,1763493606988078578,377706.878346,4128768,-0.001811,-0.001453,0.002686,0.364553,-9.750553,-0.804310
290887292,1763493606989057093,377706.879346,4128768,-0.003400,0.002631,-0.001400,0.374235,-9.747353,-0.812250
291891214,1763493606990061015,377706.880346,4128768,-0.000527,-0.003121,-0.004251,0.367669,-9.745702,-0.796343
292875673,1763493606991045456,377706.881346,4128768,-0.001375,-0.000235,-0.001779,0.359669,-9.753677,-0.791553
293864040,1763493606992033823,377706.882346,4128768,-0.001399,-0.001064,-0.000573,0.364398,-9.744143,-0.790014
295002555,1763493606993172337,377706.883346,4128768,-0.001364,-0.004363,-0.003438,0.358360,-9.758556,-0.812338
295982866,1763493606994152685,377706.884346,4128768,-0.002192,-0.004351,-0.001414,0.367820,-9.742550,-0.799625
296961548,1763493606995131330,377706.885346,4128768,-0.001000,0.000581,0.000240,0.378965,-9.737801,-0.807506
297939933,1763493606996109734,377706.886346,4128768,0.001878,0.002261,-0.000151,0.387006,-9.752151,-0.815308
298946781,1763493606997116564,377706.887346,4128768,0.003940,-0.001443,-0.001366,0.364621,-9.747443,-0.815432
299926741,1763493606998096542,377706.888346,4128768,0.001487,0.001400,-0.002614,0.369358,-9.744263,-0.816971
300905145,1763493606999074927,377706.889346,4128768,-0.000150,0.000591,-0.001397,0.377350,-9.733068,-0.815459
301883475,1763493607000053257,377706.890346,4128768,-0.001772,0.000991,-0.003456,0.374132,-9.748978,-0.805826
302862138,1763493607001031920,377706.891346,4128768,-0.002980,-0.003149,-0.003036,0.370983,-9.747316,-0.802713
303998819,1763493607002168620,377706.892346,4128768,-0.000544,0.002231,-0.002625,0.371077,-9.747356,-0.802797
304978926,1763493607003148727,377706.893346,4128768,0.000272,-0.000229,-0.001394,0.369507,-9.750551,-0.816981
305972478,1763493607004142279,377706.894346,4128768,-0.001785,-0.004760,-0.003013,0.359801,-9.740953,-0.804379
306950975,1763493607005120776,377706.895346,4128768,0.000266,-0.001050,-0.003445,0.363116,-9.747451,-0.821801
307929416,1763493607006099217,377706.896346,4128768,-0.001380,0.000188,-0.001806,0.374180,-9.745724,-0.807456
308927375,1763493607007097139,377706.897346,4128768,0.000659,-0.001053,-0.000138,0.371027,-9.728188,-0.810753
309906372,1763493607008076173,377706.898346,4128768,0.000274,-0.002693,-0.002191,0.378896,-9.744121,-0.793177
310884387,1763493607009054188,377706.899346,4128768,-0.001371,0.003881,-0.002228,0.372500,-9.744150,-0.791639
311863013,1763493607010032814,377706.900346,4128768,-0.000151,-0.000664,-0.001787,0.369433,-9.740972,-0.813877
312857861,1763493607011027625,377706.901346,4128768,-0.000546,-0.001908,-0.002606,0.359863,-9.737792,-0.806042
313994524,1763493607012164325,377706.902346,4128768,-0.000138,-0.001892,-0.002611,0.364561,-9.740977,-0.805922
314972891,1763493607013142691,377706.903346,4128768,-0.000968,-0.002287,-0.000968,0.374107,-9.740907,-0.794787
315951183,1763493607014121003,377706.904346,4128768,-0.002602,-0.001898,-0.001390,0.361401,-9.729836,-0.806049
316931143,1763493607015100944,377706.905346,4128768,-0.000174,0.001850,0.001066,0.361392,-9.739355,-0.804381
317909713,1763493607016079514,377706.906346,4128768,-0.001783,0.000570,-0.002199,0.370965,-9.742553,-0.807511
318904321,1763493607017074066,377706.907346,4128768,-0.002613,0.001811,-0.002634,0.356626,-9.750568,-0.799583
319898725,1763493607018068526,377706.908346,4128768,0.001046,0.001028,-0.000162,0.356514,-9.734592,-0.804400
320878592,1763493607019048355,377706.909346,4128768,0.002751,-0.003969,-0.004226,0.350132,-9.745815,-0.805917
321867903,1763493607020037685,377706.910346,4128768,-0.000969,-0.001891,-0.003454,0.362955,-9.734591,-0.810690
323004917,1763493607021174718,377706.911346,4128768,-0.002610,0.000987,-0.001817,0.364485,-9.731409,-0.804382
323983432,1763493607022153215,377706.912346,4128768,0.005559,-0.001849,0.000285,0.364501,-9.728167,-0.798047
324961910,1763493607023131693,377706.913346,4128768,-0.001766,0.000167,-0.003037,0.359612,-9.729785,-0.796451
325940185,1763493607024109986,377706.914346,4128768,0.001494,-0.002276,-0.001370,0.345307,-9.741000,-0.794903
326933681,1763493607025103482,377706.915346,4128768,-0.003002,-0.001470,-0.001806,0.367843,-9.748941,-0.804324
327930992,1763493607026100775,377706.916346,4128768,0.002314,0.000991,-0.003009,0.358177,-9.739422,-0.799611
328920341,1763493607027090123,377706.917346,4128768,0.002687,-0.000638,0.000268,0.377315,-9.756886,-0.796208
329899096,1763493607028068879,377706.918346,4128768,0.004756,-0.001470,-0.001753,0.364525,-9.752121,-0.799471
330877519,1763493607029047320,377706.919346,4128768,0.000669,0.002244,-0.000974,0.369355,-9.753748,-0.804227
331855571,1763493607030025353,377706.920346,4128768,0.001548,-0.002293,-0.003815,0.385207,-9.737788,-0.801008
332993641,1763493607031163442,377706.921346,4128768,0.000624,-0.002693,0.000268,0.358081,-9.742540,-0.793226
334004063,1763493607032173846,377706.922346,4128768,0.001867,-0.000208,0.000679,0.361454,-9.756998,-0.809033
334982319,1763493607033152120,377706.923346,4128768,0.008849,0.002227,-0.000904,0.363033,-9.753853,-0.809052
335960593,1763493607034130394,377706.924346,4128768,0.005188,0.001006,-0.002177,0.374269,-9.752186,-0.807489
336940367,1763493607035110168,377706.925346,4128768,0.003123,0.002648,0.000261,0.372603,-9.748968,-0.813813
337918271,1763493607036088054,377706.926346,4128768,0.007188,-0.001449,0.001534,0.367729,-9.752166,-0.802725
338912120,1763493607037081921,377706.927346,4128768,0.007218,-0.004336,-0.000494,0.355038,-9.736212,-0.817165
339891153,1763493607038060936,377706.928346,4128768,0.003489,0.000604,0.001499,0.366228,-9.747414,-0.805954
340908205,1763493607039077969,377706.929346,4128768,0.002301,0.002247,0.000260,0.367706,-9.750581,-0.796347
341886831,1763493607040056614,377706.930346,4128768,0.007196,0.001036,0.000700,0.366144,-9.750584,-0.804290
342865661,1763493607041035443,377706.931346,4128768,0.008030,-0.002264,-0.001745,0.355050,-9.763328,-0.805876
344002194,1763493607042171995,377706.932346,4128768,0.008422,0.001824,-0.002971,0.372731,-9.761809,-0.824876
344981765,1763493607043151547,377706.933346,4128768,0.009225,0.001461,-0.000087,0.366202,-9.752204,-0.807429
345962557,1763493607044132229,377706.934346,4128768,0.003941,-0.002289,-0.000932,0.377294,-9.756891,-0.789914
346941572,1763493607045111392,377706.935346,4128768,0.005148,0.003494,0.001101,0.372532,-9.752165,-0.801117
347934773,1763493607046104592,377706.936346,4128768,0.006403,-0.000234,-0.003800,0.372565,-9.750561,-0.801125
348929139,1763493607047098922,377706.937346,4128768,0.007202,0.000194,0.000710,0.366200,-9.747400,-0.805884
349908710,1763493607048078492,377706.938346,4128768,0.003894,0.002269,0.002725,0.364497,-9.749008,-0.802662
350887095,1763493607049056896,377706.939346,4128768,0.005949,-0.003504,0.003181,0.359772,-9.739367,-0.799653
351865647,1763493607050035430,377706.940346,4128768,0.007618,0.000195,-0.002169,0.364578,-9.740948,-0.796454
353003606,1763493607051173370,377706.941346,4128768,0.005961,0.001854,-0.000136,0.364379,-9.740993,-0.786844
353981769,1763493607052151570,377706.942346,4128768,0.008432,0.008027,-0.000544,0.359807,-9.755386,-0.805925
354975044,1763493607053144844,377706.943346,4128768,0.007609,0.002688,-0.000531,0.368029,-9.758657,-0.817038
355952559,1763493607054122360,377706.944346,4128768,0.003949,-0.001482,-0.000930,0.382094,-9.745746,-0.794719
356932074,1763493607055101856,377706.945346,4128768,0.005567,-0.000620,0.000290,0.363003,-9.750561,-0.801143
357909996,1763493607056079797,377706.946346,4128768,0.005211,-0.003959,-0.003380,0.362836,-9.745756,-0.793200
358908067,1763493607057077849,377706.947346,4128768,0.005965,0.001850,0.001922,0.357912,-9.736128,-0.785308
359887396,1763493607058057179,377706.948346,4128768,0.004761,-0.000240,-0.001767,0.369256,-9.737774,-0.793224
360876023,1763493607059045823,377706.949346,4128768,0.002705,0.000618,-0.001779,0.380312,-9.731293,-0.783656
361872389,1763493607060042190,377706.950346,4128768,0.001494,-0.000669,-0.002193,0.366195,-9.747361,-0.812210
362863978,1763493607061033779,377706.951346,4128768,0.002270,0.001441,0.001493,0.362961,-9.742559,-0.796419
364003530,1763493607062173331,377706.952346,4128768,0.000667,0.000610,-0.000981,0.367724,-9.753717,-0.799436
365007526,1763493607063177290,377706.953346,4128768,0.000252,-0.001462,-0.000546,0.380426,-9.752029,-0.789838
365987560,1763493607064157361,377706.954346,4128768,0.001862,0.001000,0.001090,0.372429,-9.740910,-0.794696
366968130,1763493607065137931,377706.955346,4128768,0.005135,-0.000200,-0.000539,0.364480,-9.745722,-0.794751
367948349,1763493607066118150,377706.956346,4128768,0.003925,0.001017,-0.000137,0.374100,-9.742513,-0.801097
368953364,1763493607067123128,377706.957346,4128768,-0.001342,-0.001882,-0.002613,0.380392,-9.742569,-0.796288
369934083,1763493607068103884,377706.958346,4128768,-0.001828,-0.001476,-0.000172,0.366129,-9.745729,-0.801121
370914394,1763493607069084213,377706.959346,4128768,0.002687,0.000192,-0.001383,0.363026,-9.744213,-0.804404
371894224,1763493607070064006,377706.960346,4128768,0.003950,-0.002295,-0.002170,0.367693,-9.737727,-0.794796
372875683,1763493607071045466,377706.961346,4128768,-0.000546,0.002234,-0.001802,0.363025,-9.752146,-0.799581
373865920,1763493607072035721,377706.962346,4128768,0.004755,-0.003934,-0.000506,0.367637,-9.744159,-0.789989
375004916,1763493607073174717,377706.963346,4128768,-0.000113,-0.000239,-0.005087,0.367760,-9.761722,-0.794723
375999931,1763493607074169714,377706.964346,4128768,-0.000150,-0.003518,-0.001786,0.377374,-9.752131,-0.797950
376980317,1763493607075150099,377706.965346,4128768,0.000285,-0.003953,-0.004242,0.372487,-9.748953,-0.793139
377960202,1763493607076130003,377706.966346,4128768,0.001481,-0.006005,0.001517,0.369341,-9.748965,-0.805855
378956384,1763493607077126166,377706.967346,4128768,0.002753,-0.001872,-0.004654,0.372464,-9.755302,-0.793089
379937084,1763493607078106885,377706.968346,4128768,-0.002632,-0.000232,0.002691,0.375707,-9.744136,-0.797939
380918080,1763493607079087881,377706.969346,4128768,-0.005828,-0.003949,-0.003862,0.367621,-9.744148,-0.788433
381898688,1763493607080068470,377706.970346,4128768,0.001083,-0.000250,-0.004245,0.364611,-9.764984,-0.804204
382904888,1763493607081074670,377706.971346,4128768,0.000279,0.000596,-0.002615,0.366204,-9.755358,-0.801122
383885144,1763493607082054945,377706.972346,4128768,-0.003029,-0.003507,0.000252,0.375651,-9.752136,-0.796241
384877159,1763493607083046941,377706.973346,4128768,-0.003419,-0.000255,-0.003046,0.366065,-9.742589,-0.793234
385902303,1763493607084072104,377706.974346,4128768,-0.007103,-0.001045,-0.000204,0.363059,-9.758564,-0.805920
386883466,1763493607085053286,377706.975346,4128768,-0.006296,-0.000259,-0.002246,0.369399,-9.744181,-0.807486
387863778,1763493607086033579,377706.976346,4128768,-0.003830,-0.003136,-0.003028,0.364602,-9.748972,-0.802725
388868311,1763493607087038093,377706.977346,4128768,-0.006264,-0.002306,-0.004279,0.378932,-9.761728,-0.796211
389885882,1763493607088055664,377706.978346,4128768,-0.003835,-0.001463,0.000643,0.377236,-9.745693,-0.786806
390866397,1763493607089036197,377706.979346,4128768,-0.004199,-0.004413,-0.004647,0.364539,-9.747332,-0.807454
392004911,1763493607090174730,377706.980346,4128768,-0.004653,-0.001055,-0.000183,0.356547,-9.750590,-0.804287
392986593,1763493607091156375,377706.981346,4128768,-0.005842,-0.002720,-0.003049,0.366044,-9.742582,-0.780487
393967071,1763493607092136853,377706.982346,4128768,-0.007054,-0.001101,-0.004692,0.351849,-9.749023,-0.805994
394948067,1763493607093117849,377706.983346,4128768,-0.005874,-0.001503,-0.003461,0.359770,-9.750579,-0.802763
395928527,1763493607094098327,377706.984346,4128768,-0.007484,-0.002333,-0.003485,0.386890,-9.753734,-0.805710
396924930,1763493607095094694,377706.985346,4128768,-0.001415,-0.001444,0.001059,0.378846,-9.753689,-0.789854
397905242,1763493607096075043,377706.986346,4128768,-0.005049,-0.006020,-0.001387,0.378898,-9.753746,-0.802581
399311181,1763493607097480612,377706.987346,4128768,-0.003400,-0.001490,-0.003446,0.366131,-9.736202,-0.801210
399980697,1763493607098150498,377706.988346,4128768,-0.003437,0.002232,-0.002235,0.382042,-9.742523,-0.789959
400960638,1763493607099130439,377706.989346,4128768,-0.003417,0.000584,-0.002260,0.370857,-9.739298,-0.788426
401938857,1763493607100108639,377706.990346,4128768,-0.006273,-0.003146,-0.002228,0.362949,-9.750603,-0.807458
402917372,1763493607101087025,377706.991346,4128768,-0.010322,-0.000690,-0.005139,0.367816,-9.760183,-0.810584
403943739,1763493607102113558,377706.992346,4128768,-0.004651,0.000576,-0.002246,0.364533,-9.758490,-0.796338
404922031,1763493607103091814,377706.993346,4128768,-0.004211,-0.001081,-0.002628,0.366158,-9.752069,-0.796386
405900528,1763493607104070329,377706.994346,4128768,-0.004672,0.000574,-0.001404,0.362969,-9.744163,-0.804374
406878765,1763493607105048566,377706.995346,4128768,-0.002197,-0.001458,-0.000162,0.362989,-9.753748,-0.796409
407856873,1763493607106026655,377706.996346,4128768,-0.004213,-0.001482,-0.002235,0.367735,-9.737758,-0.801198
409015183,1763493607107184873,377706.997346,4128768,-0.005029,-0.005622,-0.004678,0.375819,-9.753798,-0.821641
409993828,1763493607108163610,377706.998346,4128768,-0.004649,-0.001885,-0.001826,0.370956,-9.742598,-0.807453
410987158,1763493607109156959,377706.999346,4128768,-0.005465,-0.001070,-0.002664,0.369414,-9.748958,-0.818583
411968451,1763493607110138140,377707.000346,4128768,-0.002573,0.000575,-0.003443,0.379064,-9.748958,-0.815375
412947910,1763493607111117711,377707.001346,4128768,-0.003024,0.001819,-0.000591,0.371083,-9.752192,-0.813798
413926314,1763493607112096115,377707.002346,4128768,-0.005839,-0.004383,-0.002228,0.363006,-9.736246,-0.815468
414904773,1763493607113074574,377707.003346,4128768,-0.002590,-0.001067,-0.002230,0.367815,-9.755346,-0.812175
415883270,1763493607114053052,377707.004346,4128768,-0.004645,-0.000664,-0.003047,0.366326,-9.749020,-0.820198
416863359,1763493607115033160,377707.005346,4128768,-0.005444,-0.001101,-0.003871,0.375708,-9.748983,-0.799441
417857152,1763493607116026934,377707.006346,4128768,-0.001441,0.001439,0.002686,0.359757,-9.742588,-0.798054
418887463,1763493607117057245,377707.007346,4128768,-0.003063,-0.005149,0.001465,0.356629,-9.745792,-0.801212
419867533,1763493607118037316,377707.008346,4128768,-0.000183,0.000614,0.000239,0.366089,-9.747367,-0.794759
421005659,1763493607119175330,377707.009346,4128768,0.000253,-0.002664,0.000259,0.364484,-9.737808,-0.802757
421983674,1763493607120153475,377707.010346,4128768,-0.000153,-0.001048,-0.003015,0.358255,-9.750541,-0.802792
422962059,1763493607121131879,377707.011346,4128768,0.000664,0.002655,-0.001803,0.366236,-9.750538,-0.809093
423940334,1763493607122110135,377707.012346,4128768,-0.002997,-0.005600,-0.003447,0.355139,-9.758668,-0.829777
424934923,1763493607123104705,377707.013346,4128768,-0.002198,-0.001880,-0.001797,0.355151,-9.753805,-0.820316
425913419,1763493607124083202,377707.014346,4128768,-0.003422,0.000978,-0.003464,0.361556,-9.755390,-0.817089
426891545,1763493607125061346,377707.015346,4128768,-0.004241,-0.003124,-0.001821,0.377429,-9.752145,-0.810620
427893357,1763493607126063157,377707.016346,4128768,-0.001381,-0.002685,0.000652,0.378921,-9.745746,-0.808981
428888649,1763493607127058432,377707.017346,4128768,0.003521,-0.001874,-0.000141,0.364477,-9.748945,-0.797935
429867590,1763493607128037391,377707.018346,4128768,0.000670,-0.000230,-0.001798,0.375760,-9.736227,-0.818584
431004105,1763493607129173887,377707.019346,4128768,0.001896,-0.000663,-0.001776,0.370923,-9.740974,-0.812191
431997138,1763493607130166920,377707.020346,4128768,-0.000577,-0.002688,0.001478,0.374233,-9.755301,-0.809005
432975468,1763493607131145269,377707.021346,4128768,0.003107,0.001438,-0.000968,0.356455,-9.750553,-0.793160
433953816,1763493607132123617,377707.022346,4128768,0.000656,-0.001872,0.000252,0.359835,-9.747423,-0.805964
434932128,1763493607133101910,377707.023346,4128768,0.001895,-0.000627,-0.002197,0.364621,-9.760171,-0.808997
435910365,1763493607134080166,377707.024346,4128768,0.001484,-0.001058,-0.002196,0.355083,-9.741086,-0.812386
436890287,1763493607135060070,377707.025346,4128768,0.001472,-0.002703,0.000693,0.372541,-9.737764,-0.805916
437868710,1763493607136038492,377707.026346,4128768,-0.000525,-0.002724,-0.002998,0.369337,-9.742564,-0.802727
438870428,1763493607137040192,377707.027346,4128768,-0.000557,0.000599,-0.000149,0.370968,-9.741007,-0.802774
440007017,1763493607138176818,377707.028346,4128768,0.004319,0.000610,-0.000944,0.356590,-9.742552,-0.787037
440986273,1763493607139156055,377707.029346,4128768,-0.001823,0.000183,0.000648,0.367715,-9.737807,-0.801116
441964214,1763493607140134014,377707.030346,4128768,0.001486,-0.000640,-0.000136,0.363046,-9.745789,-0.802787
442942117,1763493607141111918,377707.031346,4128768,0.001897,-0.003087,-0.000539,0.364549,-9.752213,-0.801110
443920336,1763493607142090137,377707.032346,4128768,0.002702,0.000598,-0.000956,0.367721,-9.747392,-0.805875
444899925,1763493607143069726,377707.033346,4128768,0.001868,-0.001910,-0.000966,0.363008,-9.747416,-0.809086
445893774,1763493607144063574,377707.034346,4128768,0.000256,-0.000637,-0.000575,0.362934,-9.745746,-0.796367
446872140,1763493607145041941,377707.035346,4128768,0.000636,0.003907,0.000231,0.361275,-9.748958,-0.788437
448008840,1763493607146178622,377707.036346,4128768,0.005974,-0.001459,-0.001339,0.361389,-9.748943,-0.804321
449008799,1763493607147178563,377707.037346,4128768,0.003145,-0.005186,-0.002566,0.377370,-9.756947,-0.805780
449988111,1763493607148157930,377707.038346,4128768,0.001060,0.001004,0.002310,0.377375,-9.737825,-0.815439
450966329,1763493607149136112,377707.039346,4128768,0.003934,-0.001031,-0.000538,0.374117,-9.729832,-0.807543
451944530,1763493607150114331,377707.040346,4128768,0.006355,0.002658,0.000690,0.358176,-9.731443,-0.807600
452937508,1763493607151107308,377707.041346,4128768,0.005144,0.000209,0.001930,0.363002,-9.748950,-0.810663
453915874,1763493607152085675,377707.042346,4128768,0.007218,-0.003106,-0.000116,0.369527,-9.742606,-0.826620
454893945,1763493607153063727,377707.043346,4128768,0.007197,0.000193,-0.001347,0.367680,-9.745720,-0.788450
455872182,1763493607154042002,377707.044346,4128768,0.003944,0.001016,-0.001779,0.372489,-9.750452,-0.793125
457008808,1763493607155178590,377707.045346,4128768,0.004346,-0.001053,-0.000528,0.366086,-9.748919,-0.788425
457986897,1763493607156156679,377707.046346,4128768,0.002708,-0.002718,-0.000512,0.369194,-9.758516,-0.793063
458974393,1763493607157144157,377707.047346,4128768,0.003955,0.000594,-0.003009,0.359715,-9.750568,-0.801133
459967612,1763493607158137394,377707.048346,4128768,0.003107,-0.003938,-0.000540,0.366165,-9.758463,-0.791596
460946053,1763493607159115854,377707.049346,4128768,0.005587,-0.001867,-0.000926,0.355106,-9.742631,-0.807613
461924698,1763493607160094498,377707.050346,4128768,0.003110,0.001000,-0.001379,0.361492,-9.745770,-0.807597
462902898,1763493607161072717,377707.051346,4128768,0.007179,0.003102,0.001525,0.364586,-9.744137,-0.801161
463881302,1763493607162051084,377707.052346,4128768,0.007220,0.000638,-0.000526,0.366217,-9.745818,-0.805903
464888020,1763493607163057784,377707.053346,4128768,0.007984,0.004353,0.001501,0.380511,-9.734581,-0.813775
465866498,1763493607164036299,377707.054346,4128768,0.008403,-0.001448,-0.000522,0.382034,-9.742583,-0.810533
466859995,1763493607165029814,377707.055346,4128768,0.010490,0.003503,-0.002138,0.358132,-9.742594,-0.801195
467996213,1763493607166166014,377707.056346,4128768,0.007192,0.001859,-0.000948,0.362871,-9.734581,-0.796445
468991895,1763493607167161677,377707.057346,4128768,0.004327,-0.004748,0.002346,0.363060,-9.737796,-0.813955
469970798,1763493607168140599,377707.058346,4128768,0.006003,-0.000652,-0.001748,0.361404,-9.761658,-0.793153
470949462,1763493607169119262,377707.059346,4128768,0.007200,-0.002290,-0.000922,0.374043,-9.744209,-0.796298
471927847,1763493607170097629,377707.060346,4128768,0.001492,0.003037,-0.003861,0.375784,-9.745811,-0.802730
472907566,1763493607171077348,377707.061346,4128768,0.005589,-0.000220,-0.000525,0.367915,-9.753718,-0.812258
473919821,1763493607172089604,377707.062346,4128768,0.008429,0.001865,0.000701,0.364723,-9.748989,-0.818624
474897985,1763493607173067785,377707.063346,4128768,0.002292,-0.002700,-0.000539,0.375623,-9.747336,-0.796250
475876148,1763493607174045930,377707.064346,4128768,0.005541,0.001862,0.001097,0.363005,-9.742636,-0.812331
476856237,1763493607175026019,377707.065346,4128768,0.003551,0.002233,-0.001781,0.367724,-9.739401,-0.799556
477992362,1763493607176162145,377707.066346,4128768,0.005176,-0.000643,-0.000114,0.382054,-9.732964,-0.791609
478979174,1763493607177148956,377707.067346,4128768,0.003089,0.001876,0.001479,0.374128,-9.740935,-0.793220
479957744,1763493607178127545,377707.068346,4128768,0.004325,-0.000222,-0.000944,0.353458,-9.763376,-0.801170
480952000,1763493607179121782,377707.069346,4128768,0.005586,-0.002289,-0.001339,0.348599,-9.742666,-0.798163
481930107,1763493607180099890,377707.070346,4128768,0.004341,0.001845,-0.000960,0.358154,-9.736189,-0.796533
482908474,1763493607181078275,377707.071346,4128768,0.005976,0.001864,-0.000121,0.363010,-9.750580,-0.804310
483886804,1763493607182056605,377707.072346,4128768,0.002709,-0.003494,0.001106,0.372535,-9.740967,-0.804326
484866615,1763493607183036416,377707.073346,4128768,0.004783,-0.000224,-0.001783,0.372452,-9.744110,-0.790025
486005426,1763493607184175209,377707.074346,4128768,0.001088,-0.001899,-0.003424,0.369263,-9.740961,-0.791611
486985552,1763493607185155353,377707.075346,4128768,0.002299,-0.000637,-0.000954,0.366164,-9.729799,-0.798082
487980493,1763493607186150294,377707.076346,4128768,0.003937,-0.004758,-0.000529,0.370896,-9.760136,-0.796258
488978953,1763493607187148735,377707.077346,4128768,0.001092,-0.000655,-0.002592,0.367676,-9.742588,-0.801175
489975690,1763493607188145472,377707.078346,4128768,-0.002997,0.000969,-0.002626,0.386831,-9.744114,-0.800993
490956464,1763493607189126265,377707.079346,4128768,-0.001400,-0.000622,0.001054,0.372498,-9.755381,-0.807376
491936886,1763493607190106687,377707.080346,4128768,-0.001781,-0.001061,-0.001394,0.369184,-9.737746,-0.797924
492918605,1763493607191088406,377707.081346,4128768,-0.000564,-0.000226,-0.002601,0.359696,-9.742595,-0.794804
493898361,1763493607192068162,377707.082346,4128768,-0.001771,-0.004782,-0.002216,0.366051,-9.739367,-0.794768
494893543,1763493607193063343,377707.083346,4128768,-0.000577,-0.003100,-0.000562,0.375543,-9.745711,-0.789916
495874076,1763493607194043895,377707.084346,4128768,0.001469,-0.001873,-0.000128,0.373984,-9.753651,-0.783544
496866832,1763493607195036614,377707.085346,4128768,-0.002212,0.003490,0.001048,0.372466,-9.750471,-0.794675
498006254,1763493607196176036,377707.086346,4128768,-0.005899,0.001012,0.000217,0.359697,-9.756901,-0.786771
498995435,1763493607197165218,377707.087346,4128768,0.002304,0.002655,-0.001790,0.380521,-9.752188,-0.802600
499975691,1763493607198145492,377707.088346,4128768,-0.003016,0.000588,-0.000586,0.367704,-9.747341,-0.793180
500957262,1763493607199127062,377707.089346,4128768,-0.007913,0.000574,-0.002274,0.364556,-9.755325,-0.796340
501952462,1763493607200122244,377707.090346,4128768,-0.005025,-0.003571,-0.005906,0.378773,-9.760073,-0.789790
502932717,1763493607201102500,377707.091346,4128768,-0.002619,-0.003115,0.000651,0.367784,-9.761760,-0.799474
503913103,1763493607202082904,377707.092346,4128768,-0.003014,0.000175,-0.002231,0.377323,-9.758445,-0.791532
504894284,1763493607203064048,377707.093346,4128768,-0.002606,0.001400,-0.001800,0.374192,-9.758553,-0.804227
505874596,1763493607204044378,377707.094346,4128768,-0.008752,-0.006011,0.001860,0.367749,-9.761755,-0.797880
506865000,1763493607205034801,377707.095346,4128768,0.000653,-0.002287,0.000275,0.367750,-9.737808,-0.805903
508004699,1763493607206174519,377707.096346,4128768,-0.002601,-0.001474,-0.001393,0.369330,-9.750587,-0.802691
508858326,1763493607207028108,377707.097346,4128768,-0.004261,0.000166,-0.001833,0.364546,-9.744211,-0.802785
509864507,1763493607208034308,377707.098346,4128768,-0.003820,-0.002716,-0.000999,0.358076,-9.747332,-0.796370
511003726,1763493607209173526,377707.099346,4128768,-0.003876,-0.001859,0.001869,0.361414,-9.740996,-0.809134
511984018,1763493607210153801,377707.100346,4128768,-0.004240,-0.003107,-0.000594,0.372593,-9.752235,-0.805869
512965682,1763493607211135464,377707.101346,4128768,-0.004644,0.000175,-0.002647,0.356537,-9.750553,-0.802734
513945789,1763493607212115571,377707.102346,4128768,-0.003823,-0.000248,-0.001820,0.362939,-9.752140,-0.807450
514926323,1763493607213096105,377707.103346,4128768,-0.003417,0.000593,-0.001001,0.366199,-9.760159,-0.802654
515921282,1763493607214091064,377707.104346,4128768,-0.004634,-0.001065,-0.001401,0.367735,-9.736159,-0.805924
516902704,1763493607215072505,377707.105346,4128768,-0.006294,-0.001068,-0.001429,0.359784,-9.745778,-0.798036
517882960,1763493607216052761,377707.106346,4128768,-0.005434,-0.000687,-0.004688,0.356608,-9.736183,-0.807597
518878475,1763493607217048257,377707.107346,4128768,-0.005440,-0.000277,-0.004683,0.372519,-9.749016,-0.808981
519859564,1763493607218029347,377707.108346,4128768,-0.005448,0.000144,-0.001824,0.361288,-9.739317,-0.796431
521013616,1763493607219183379,377707.109346,4128768,-0.006684,-0.000624,-0.001017,0.364502,-9.736099,-0.791690
521993816,1763493607220163617,377707.110346,4128768,-0.005442,-0.001075,-0.002230,0.372646,-9.744202,-0.805922
522988868,1763493607221158669,377707.111346,4128768,-0.004662,-0.000252,-0.000603,0.366109,-9.734665,-0.805945
523979457,1763493607222149258,377707.112346,4128768,-0.004218,0.000177,-0.002249,0.378908,-9.734549,-0.804313
524961268,1763493607223131069,377707.113346,4128768,-0.005050,0.001384,-0.002648,0.358131,-9.731419,-0.801276
525941579,1763493607224111362,377707.114346,4128768,-0.004589,-0.001071,-0.003855,0.353395,-9.742595,-0.802855
526922039,1763493607225091821,377707.115346,4128768,-0.005035,0.000173,-0.002242,0.374037,-9.744162,-0.794749
527918850,1763493607226088670,377707.116346,4128768,-0.004256,-0.003976,-0.002631,0.347113,-9.745850,-0.809276
528909236,1763493607227079018,377707.117346,4128768,-0.004238,-0.000256,-0.002243,0.366166,-9.747359,-0.810663
529904732,1763493607228074514,377707.118346,4128768,-0.005839,-0.003135,-0.003043,0.375594,-9.740920,-0.793120
530884840,1763493607229054622,377707.119346,4128768,-0.003868,-0.002700,0.001042,0.369258,-9.739359,-0.805842
531865262,1763493607230035063,377707.120346,4128768,-0.001746,0.000995,-0.005913,0.377276,-9.742587,-0.802660
532867184,1763493607231036985,377707.121346,4128768,0.000291,-0.003939,-0.004233,0.380501,-9.747358,-0.805781
534007014,1763493607232176814,377707.122346,4128768,-0.003810,-0.003131,-0.003033,0.359686,-9.755338,-0.801053
534987492,1763493607233157292,377707.123346,4128768,0.000703,-0.001467,-0.003833,0.364509,-9.739353,-0.804347
535967451,1763493607234137270,377707.124346,4128768,0.001032,-0.000199,0.002281,0.374036,-9.732939,-0.793243
536963929,1763493607235133711,377707.125346,4128768,-0.000564,-0.000633,0.000655,0.359816,-9.740960,-0.799655
537943870,1763493607236113671,377707.126346,4128768,-0.000565,-0.001873,-0.001790,0.366179,-9.742548,-0.809097
538939422,1763493607237109223,377707.127346,4128768,0.001052,-0.000225,0.000271,0.361540,-9.749058,-0.821841
539920178,1763493607238089960,377707.128346,4128768,-0.000951,-0.002315,-0.002608,0.359766,-9.747433,-0.805909
540901859,1763493607239071642,377707.129346,4128768,-0.000953,0.001001,-0.002210,0.372568,-9.744203,-0.801135
541882152,1763493607240051953,377707.130346,4128768,-0.001780,-0.001866,-0.000163,0.370834,-9.752059,-0.794713
542862352,1763493607241032153,377707.131346,4128768,0.003546,-0.004780,-0.002149,0.367770,-9.745798,-0.813824
544025163,1763493607242194945,377707.132346,4128768,0.003524,-0.003120,-0.001766,0.363022,-9.740970,-0.805974
544859512,1763493607243029294,377707.133346,4128768,0.004723,0.000195,0.002325,0.359795,-9.741020,-0.810732
545998619,1763493607244168401,377707.134346,4128768,0.003921,0.002256,0.001498,0.363015,-9.744173,-0.816989
546979208,1763493607245149009,377707.135346,4128768,-0.000526,-0.003123,-0.001375,0.364683,-9.742595,-0.805978
547959649,1763493607246129431,377707.136346,4128768,0.002700,-0.001038,-0.000557,0.348721,-9.742569,-0.810858
548949904,1763493607247119687,377707.137346,4128768,0.000699,0.000581,-0.002614,0.374198,-9.753708,-0.813756
549930031,1763493607248099813,377707.138346,4128768,0.003095,0.001811,-0.001354,0.363002,-9.745743,-0.813824
550925231,1763493607249095032,377707.139346,4128768,0.006391,0.001016,-0.000948,0.355044,-9.745817,-0.813916
551905524,1763493607250075306,377707.140346,4128768,0.004327,-0.002685,-0.000527,0.374284,-9.758533,-0.815356
552886668,1763493607251056432,377707.141346,4128768,0.003078,-0.005190,0.000690,0.359707,-9.756915,-0.794743
553866887,1763493607252036688,377707.142346,4128768,0.003093,0.000583,-0.000962,0.354974,-9.744209,-0.805958
554858587,1763493607253028369,377707.143346,4128768,0.006815,0.001416,-0.003804,0.355023,-9.750644,-0.804358
555997342,1763493607254167125,377707.144346,4128768,0.002721,-0.002711,-0.003009,0.355066,-9.749012,-0.813904
556979191,1763493607255148973,377707.145346,4128768,0.001510,-0.000218,-0.002599,0.377247,-9.748878,-0.800986
557974168,1763493607256143951,377707.146346,4128768,0.003524,-0.002275,0.001116,0.374085,-9.747337,-0.797885
558969665,1763493607257139429,377707.147346,4128768,0.002702,-0.001897,0.001111,0.366180,-9.756882,-0.791594
559950828,1763493607258120629,377707.148346,4128768,0.003935,-0.000638,0.000276,0.362961,-9.736189,-0.805930
560931232,1763493607259101014,377707.149346,4128768,0.006365,-0.001425,0.000293,0.364670,-9.745852,-0.815505
561911654,1763493607260081455,377707.150346,4128768,0.001906,0.000171,-0.003003,0.372475,-9.752064,-0.783590
562891892,1763493607261061674,377707.151346,4128768,0.002730,-0.000661,-0.003420,0.369315,-9.739359,-0.797981
563882221,1763493607262052004,377707.152346,4128768,0.006765,0.002693,0.000683,0.358180,-9.748999,-0.798036
564897218,1763493607263067000,377707.153346,4128768,0.004347,-0.000636,-0.001353,0.359719,-9.748961,-0.794829
565877492,1763493607264047274,377707.154346,4128768,0.004754,-0.004373,-0.000511,0.383701,-9.748939,-0.804164
566857933,1763493607265027734,377707.155346,4128768,0.004751,-0.000635,-0.000943,0.369295,-9.737850,-0.802738
567996633,1763493607266166433,377707.156346,4128768,0.007671,0.001388,-0.006671,0.361400,-9.734619,-0.801269
568986833,1763493607267156597,377707.157346,4128768,0.003109,-0.000222,-0.000546,0.377238,-9.744156,-0.791539
569967329,1763493607268137112,377707.158346,4128768,0.003114,0.001835,-0.001369,0.358100,-9.745731,-0.802710
570947529,1763493607269117330,377707.159346,4128768,0.002762,-0.003111,-0.003810,0.370974,-9.755346,-0.805830
571942526,1763493607270112327,377707.160346,4128768,0.003116,-0.001064,-0.002573,0.355055,-9.742653,-0.813917
572924115,1763493607271093897,377707.161346,4128768,0.000253,-0.001890,-0.002623,0.366061,-9.729748,-0.802798
573904445,1763493607272074246,377707.162346,4128768,0.000628,0.003497,0.000655,0.367936,-9.747419,-0.818628
574884312,1763493607273054094,377707.163346,4128768,-0.001371,0.000581,-0.001392,0.362922,-9.744195,-0.794796
575864567,1763493607274034368,377707.164346,4128768,0.000221,0.003094,0.002293,0.374022,-9.739389,-0.791578
577004656,1763493607275174438,377707.165346,4128768,0.002715,-0.003098,0.000689,0.369253,-9.728231,-0.799600
577984782,1763493607276154583,377707.166346,4128768,0.002296,-0.001037,-0.000126,0.372471,-9.739356,-0.796355
578996075,1763493607277165857,377707.167346,4128768,0.005579,0.002253,-0.000524,0.367745,-9.748972,-0.802709
579976516,1763493607278146298,377707.168346,4128768,0.001048,0.001440,0.001065,0.367751,-9.747383,-0.804289
580958197,1763493607279127980,377707.169346,4128768,0.001086,-0.000625,-0.000558,0.365990,-9.721772,-0.786940
581938342,1763493607280108161,377707.170346,4128768,0.002707,0.001408,-0.002204,0.377186,-9.728135,-0.788465
582918746,1763493607281088547,377707.171346,4128768,0.003958,-0.001872,-0.002580,0.361323,-9.744173,-0.794800
583899094,1763493607282068895,377707.172346,4128768,0.001896,-0.001463,-0.000961,0.359867,-9.752190,-0.807524
584880517,1763493607283050299,377707.173346,4128768,0.004389,-0.002284,-0.004624,0.370881,-9.748967,-0.796366
585873994,1763493607284043777,377707.174346,4128768,0.000300,-0.001898,-0.003006,0.361518,-9.749008,-0.818651
586865602,1763493607285035384,377707.175346,4128768,-0.000141,-0.001864,-0.001394,0.374166,-9.742556,-0.807519
588004357,1763493607286174158,377707.176346,4128768,0.001881,-0.001018,0.001090,0.364497,-9.742599,-0.797996
588995372,1763493607287165155,377707.177346,4128768,0.005138,0.002666,-0.000134,0.356709,-9.756984,-0.810749
589991776,1763493607288161595,377707.178346,4128768,0.000664,0.001431,-0.001383,0.366184,-9.755354,-0.799541
590972161,1763493607289141962,377707.179346,4128768,0.002295,0.001833,-0.002210,0.362806,-9.744141,-0.780529
591952417,1763493607290122218,377707.180346,4128768,0.000674,-0.000218,-0.002203,0.358169,-9.753746,-0.797986
592948562,1763493607291118363,377707.181346,4128768,-0.005036,-0.001494,-0.003051,0.364498,-9.747340,-0.799515
593929021,1763493607292098822,377707.182346,4128768,0.002314,-0.002294,-0.001360,0.362997,-9.753752,-0.810591
594909036,1763493607293078837,377707.183346,4128768,0.002679,-0.003486,0.001082,0.367792,-9.745749,-0.809103
595889162,1763493607294058963,377707.184346,4128768,-0.000566,0.001828,-0.001406,0.367723,-9.726600,-0.798076
596878974,1763493607295048737,377707.185346,4128768,0.001459,-0.000233,0.003155,0.364444,-9.750510,-0.785229
597859655,1763493607296029456,377707.186346,4128768,0.003533,-0.001888,-0.000116,0.361337,-9.755335,-0.791608
598866429,1763493607297036212,377707.187346,4128768,-0.000162,-0.001062,-0.000149,0.375601,-9.752123,-0.789888
599862611,1763493607298032393,377707.188346,4128768,-0.001360,-0.001877,-0.002207,0.380383,-9.729753,-0.802675
601002755,1763493607299172556,377707.189346,4128768,0.001452,-0.000640,0.000670,0.372566,-9.755337,-0.797897
601982807,1763493607300152608,377707.190346,4128768,0.002320,-0.004336,-0.001359,0.361464,-9.753824,-0.813828
602963193,1763493607301132975,377707.191346,4128768,0.001462,-0.001453,0.001083,0.363045,-9.761745,-0.804274
603943337,1763493607302113119,377707.192346,4128768,0.004324,-0.001046,0.001527,0.362943,-9.741074,-0.799600
604924574,1763493607303094338,377707.193346,4128768,0.002727,-0.001872,-0.001755,0.370920,-9.752182,-0.799476
605904682,1763493607304074464,377707.194346,4128768,0.002286,-0.003111,-0.000534,0.375731,-9.745819,-0.808959
606912252,1763493607305082035,377707.195346,4128768,-0.000158,0.000193,-0.001811,0.382002,-9.745702,-0.796207
607892471,1763493607306062253,377707.196346,4128768,0.000650,0.003067,-0.003046,0.378828,-9.753707,-0.796165
608882931,1763493607307052731,377707.197346,4128768,-0.000557,-0.002705,-0.000141,0.366158,-9.742592,-0.807505
609863909,1763493607308033709,377707.198346,4128768,-0.002194,-0.002267,0.002730,0.364596,-9.744131,-0.802784
610857831,1763493607309027613,377707.199346,4128768,-0.002980,-0.002305,-0.003431,0.369350,-9.752117,-0.802628
612008030,1763493607310177831,377707.200346,4128768,-0.002186,0.000580,-0.000173,0.370922,-9.744142,-0.802709
612989731,1763493607311159513,377707.201346,4128768,-0.000558,0.001009,-0.001385,0.361353,-9.750556,-0.802731
613994801,1763493607312164602,377707.202346,4128768,0.001505,-0.005197,-0.000945,0.372592,-9.744157,-0.807495
614974724,1763493607313144506,377707.203346,4128768,-0.000541,-0.001075,-0.002608,0.362913,-9.739384,-0.790097
615954702,1763493607314124521,377707.204346,4128768,-0.004222,-0.000233,-0.002653,0.356570,-9.742590,-0.801175
616936068,1763493607315105851,377707.205346,4128768,-0.001388,0.000609,-0.001814,0.383533,-9.750537,-0.796137
617916065,1763493607316085866,377707.206346,4128768,-0.004257,-0.002299,0.000233,0.372527,-9.747317,-0.804278
618911006,1763493607317080807,377707.207346,4128768,-0.000121,-0.002303,-0.003430,0.369503,-9.756914,-0.812235
619891836,1763493607318061618,377707.208346,4128768,0.002727,-0.000642,-0.001786,0.353382,-9.744211,-0.798062
620898980,1763493607319068762,377707.209346,4128768,0.000296,-0.003130,-0.002194,0.370831,-9.745724,-0.788388
621879162,1763493607320048944,377707.210346,4128768,-0.003421,-0.000232,-0.000183,0.366027,-9.750552,-0.788358
622869732,1763493607321039533,377707.211346,4128768,-0.002970,0.000138,-0.004279,0.363008,-9.737762,-0.807579
624009136,1763493607322178937,377707.212346,4128768,0.000661,0.002664,-0.001384,0.364567,-9.740954,-0.804356
624990558,1763493607323160340,377707.213346,4128768,-0.000121,-0.001064,-0.002612,0.356599,-9.747317,-0.801194
625970443,1763493607324140244,377707.214346,4128768,-0.000539,-0.001884,-0.001389,0.372432,-9.740923,-0.788432
626950903,1763493607325120704,377707.215346,4128768,-0.000949,-0.000225,-0.002225,0.364501,-9.742612,-0.797985
627966899,1763493607326136682,377707.216346,4128768,-0.003394,-0.001073,-0.004686,0.366178,-9.740973,-0.804331
628963118,1763493607327132919,377707.217346,4128768,-0.000549,0.000604,-0.001391,0.361298,-9.734587,-0.798071
629943874,1763493607328113693,377707.218346,4128768,0.001076,0.001435,-0.001369,0.367653,-9.729805,-0.790079
630924055,1763493607329093856,377707.219346,4128768,-0.002603,-0.002722,-0.002621,0.358203,-9.739482,-0.812327
631904163,1763493607330073945,377707.220346,4128768,-0.001799,0.002235,-0.001812,0.373981,-9.747286,-0.793037
632885622,1763493607331055386,377707.221346,4128768,-0.000962,-0.000247,-0.002605,0.362925,-9.753688,-0.796343
633865526,1763493607332035309,377707.222346,4128768,0.003121,0.000184,-0.002186,0.354940,-9.755407,-0.797949
634860726,1763493607333030527,377707.223346,4128768,0.001480,0.000204,0.001087,0.374099,-9.732997,-0.801226
635999630,1763493607334169431,377707.224346,4128768,0.000285,-0.000227,0.000258,0.375720,-9.742558,-0.807456
636980571,1763493607335150353,377707.225346,4128768,-0.002609,-0.001878,-0.000581,0.367834,-9.741020,-0.817060
637960808,1763493607336130609,377707.226346,4128768,-0.002164,0.000585,-0.002629,0.363081,-9.755423,-0.812274
638949804,1763493607337119568,377707.227346,4128768,-0.001390,0.000174,0.000642,0.361277,-9.752150,-0.796322
639930301,1763493607338100120,377707.228346,4128768,-0.002602,-0.003950,-0.001790,0.380394,-9.739367,-0.801013
640911797,1763493607339081598,377707.229346,4128768,0.001513,-0.002691,-0.001364,0.356346,-9.737738,-0.783705
641907386,1763493607340077169,377707.230346,4128768,-0.000168,0.001427,0.000239,0.361271,-9.742583,-0.794813
642887587,1763493607341057387,377707.231346,4128768,-0.004630,0.000595,-0.003468,0.369338,-9.747394,-0.802711
644026157,1763493607342195939,377707.232346,4128768,0.001877,-0.002271,0.000270,0.382242,-9.747372,-0.813738
644862691,1763493607343032491,377707.233346,4128768,-0.000151,0.000174,0.000263,0.377344,-9.748878,-0.804213
646002020,1763493607344171802,377707.234346,4128768,0.002700,0.000616,0.003144,0.358133,-9.742563,-0.794835
646982331,1763493607345152113,377707.235346,4128768,-0.000126,-0.001493,-0.004248,0.375578,-9.742595,-0.796278
647962865,1763493607346132647,377707.236346,4128768,-0.000992,0.002665,0.000247,0.361370,-9.745770,-0.802778
648975250,1763493607347145032,377707.237346,4128768,-0.000560,-0.004360,-0.001788,0.369315,-9.739345,-0.801152
649956172,1763493607348125973,377707.238346,4128768,0.003145,0.001027,-0.003012,0.374212,-9.741003,-0.809110
650936502,1763493607349106285,377707.239346,4128768,0.000690,0.000584,-0.002203,0.348595,-9.750571,-0.798059
651916536,1763493607350086318,377707.240346,4128768,0.001083,-0.001431,-0.000152,0.375582,-9.748935,-0.791491
652898088,1763493607351067852,377707.241346,4128768,0.001496,0.002247,-0.001799,0.377084,-9.748920,-0.783488
653878158,1763493607352047941,377707.242346,4128768,0.001892,0.000584,-0.003845,0.359837,-9.742596,-0.810728
654858470,1763493607353028270,377707.243346,4128768,-0.000144,-0.003545,-0.000556,0.372433,-9.748878,-0.796268
655863929,1763493607354033730,377707.244346,4128768,0.002712,-0.004375,-0.002170,0.356520,-9.753766,-0.796341
657004610,1763493607355174411,377707.245346,4128768,0.001479,-0.001062,-0.000555,0.359692,-9.747355,-0.794760
657984958,1763493607356154741,377707.246346,4128768,0.004364,0.001019,-0.005059,0.366178,-9.747363,-0.807484
658973973,1763493607357143774,377707.247346,4128768,0.001919,0.002251,-0.003427,0.362904,-9.748968,-0.796324
659954692,1763493607358124474,377707.248346,4128768,0.002278,-0.003493,0.000676,0.364572,-9.740997,-0.799650
660936448,1763493607359106230,377707.249346,4128768,-0.003002,-0.001874,0.000233,0.370783,-9.720205,-0.790048
661916685,1763493607360086467,377707.250346,4128768,0.001099,-0.001072,-0.005891,0.380427,-9.744122,-0.788332
662916293,1763493607361085982,377707.251346,4128768,0.002289,0.001841,-0.000986,0.367759,-9.742527,-0.804336
663907345,1763493607362077127,377707.252346,4128768,0.004327,-0.002705,-0.001344,0.362961,-9.755394,-0.804256
664930471,1763493607363100271,377707.253346,4128768,-0.001358,-0.000240,-0.002225,0.359811,-9.753721,-0.799561
665909152,1763493607364078953,377707.254346,4128768,-0.002595,0.000980,-0.003040,0.366079,-9.741001,-0.804294
666888186,1763493607365057968,377707.255346,4128768,0.002319,-0.000243,-0.002598,0.361322,-9.747310,-0.796357
667866571,1763493607366036354,377707.256346,4128768,0.002720,0.000185,-0.002593,0.354943,-9.747358,-0.799569
668864660,1763493607367034443,377707.257346,4128768,0.002753,-0.001893,-0.001748,0.361243,-9.742631,-0.796422
669860194,1763493607368029995,377707.258346,4128768,0.001872,0.000159,-0.000946,0.357991,-9.739389,-0.796378
671008615,1763493607369178416,377707.259346,4128768,-0.001774,0.000598,-0.002624,0.359662,-9.736233,-0.799602
671987130,1763493607370156931,377707.260346,4128768,0.002670,-0.000633,0.002317,0.356581,-9.744169,-0.798047
672965775,1763493607371135557,377707.261346,4128768,0.000638,0.001425,0.001482,0.367731,-9.753738,-0.794745
673944031,1763493607372113813,377707.262346,4128768,-0.000564,0.001014,-0.000577,0.364590,-9.763346,-0.802684
674922083,1763493607373091865,377707.263346,4128768,0.004333,-0.000229,-0.001767,0.369307,-9.742587,-0.801143
675900394,1763493607374070177,377707.264346,4128768,0.003537,-0.000218,-0.001360,0.372523,-9.744184,-0.802719
676903668,1763493607375073469,377707.265346,4128768,-0.000564,-0.001882,0.001496,0.383693,-9.744093,-0.799451
677881998,1763493607376051781,377707.266346,4128768,0.001881,-0.002271,0.000277,0.366232,-9.740970,-0.812336
678870291,1763493607377040073,377707.267346,4128768,0.001078,-0.004359,-0.001373,0.364491,-9.752193,-0.793198
680007528,1763493607378177347,377707.268346,4128768,0.001076,0.000591,-0.000976,0.375655,-9.744123,-0.801035
680986006,1763493607379155677,377707.269346,4128768,0.000650,-0.000212,0.000260,0.359866,-9.748966,-0.804374
681964095,1763493607380133877,377707.270346,4128768,-0.001397,-0.001477,0.000251,0.355153,-9.758586,-0.809179
682942239,1763493607381112040,377707.271346,4128768,0.002286,0.000585,-0.002190,0.356732,-9.748981,-0.810752
683952551,1763493607382122333,377707.272346,4128768,0.004746,-0.001058,-0.001747,0.361343,-9.745714,-0.793233
684931288,1763493607383101089,377707.273346,4128768,-0.002195,0.002229,-0.001028,0.374042,-9.736107,-0.788483
685909988,1763493607384079770,377707.274346,4128768,0.001476,-0.001045,-0.000963,0.377312,-9.744189,-0.801097
686888133,1763493607385057915,377707.275346,4128768,-0.000148,0.001399,-0.002211,0.374141,-9.744173,-0.801070
687866814,1763493607386036615,377707.276346,4128768,0.003130,-0.002700,-0.002179,0.366173,-9.747356,-0.804276
688864107,1763493607387033889,377707.277346,4128768,-0.001372,-0.000227,-0.000168,0.370887,-9.755343,-0.797860
690010307,1763493607388180108,377707.278346,4128768,0.001475,-0.003537,0.000285,0.374156,-9.739412,-0.815420
690858767,1763493607389028567,377707.279346,4128768,0.001879,0.002693,-0.000142,0.380434,-9.744086,-0.797814
691995633,1763493607390165415,377707.280346,4128768,-0.000949,-0.001473,-0.002191,0.383680,-9.753711,-0.797794
692975370,1763493607391145171,377707.281346,4128768,-0.004633,-0.000264,-0.005116,0.380635,-9.756869,-0.799475
693953274,1763493607392123075,377707.282346,4128768,0.001884,-0.002277,0.001092,0.369537,-9.737858,-0.823480
694931622,1763493607393101423,377707.283346,4128768,-0.003486,0.001019,0.003912,0.356632,-9.737866,-0.815548
695910286,1763493607394080068,377707.284346,4128768,0.001457,-0.000628,0.000659,0.367579,-9.744158,-0.783644
696888726,1763493607395058509,377707.285346,4128768,-0.003823,-0.002311,-0.000163,0.366161,-9.752126,-0.796343
697892408,1763493607396062209,377707.286346,4128768,-0.003030,-0.006436,0.001494,0.374135,-9.750564,-0.813735
698879127,1763493607397048909,377707.287346,4128768,-0.000166,-0.002284,-0.000151,0.359762,-9.748939,-0.798002
699857808,1763493607398027591,377707.288346,4128768,0.001105,-0.002287,-0.002191,0.366100,-9.750563,-0.796359
700996267,1763493607399166050,377707.289346,4128768,-0.002994,0.000582,-0.000992,0.361361,-9.737804,-0.798075
701974690,1763493607400144509,377707.290346,4128768,-0.007113,-0.002288,-0.000202,0.359635,-9.742599,-0.790059
702952612,1763493607401122413,377707.291346,4128768,-0.002998,-0.001471,-0.001390,0.370926,-9.740964,-0.799554
703931183,1763493607402100984,377707.292346,4128768,-0.005890,-0.002299,0.000232,0.363077,-9.745857,-0.817057
704936309,1763493607403106073,377707.293346,4128768,-0.002980,-0.001103,-0.004682,0.369281,-9.739321,-0.794801
705914657,1763493607404084439,377707.294346,4128768,-0.000957,-0.003545,-0.003010,0.372439,-9.748898,-0.791512
706892728,1763493607405062529,377707.295346,4128768,-0.000954,0.000609,0.000654,0.367718,-9.753675,-0.794697
707871187,1763493607406041007,377707.296346,4128768,-0.001389,0.002637,0.000240,0.370884,-9.752163,-0.799465
708867702,1763493607407037503,377707.297346,4128768,-0.000971,-0.003112,-0.000555,0.375690,-9.750525,-0.804223
709860680,1763493607408030481,377707.298346,4128768,-0.000969,0.000197,-0.001801,0.350186,-9.748950,-0.798077
710855713,1763493607409025496,377707.299346,4128768,-0.001777,-0.000224,-0.000575,0.358219,-9.737816,-0.804453
711861543,1763493607410031344,377707.300346,4128768,-0.003437,-0.004752,0.001055,0.364607,-9.742591,-0.805975
713002502,1763493607411172266,377707.301346,4128768,0.000248,-0.002294,-0.002208,0.361393,-9.758517,-0.801118
713982647,1763493607412152466,377707.302346,4128768,-0.001783,-0.003108,-0.000547,0.369342,-9.752125,-0.807417
714963014,1763493607413132796,377707.303346,4128768,-0.002559,-0.001909,-0.005090,0.364505,-9.739409,-0.807475
715943399,1763493607414113218,377707.304346,4128768,-0.000189,-0.001866,0.001881,0.374041,-9.732960,-0.799538
716924692,1763493607415094474,377707.305346,4128768,-0.005482,0.001824,0.000630,0.348474,-9.728188,-0.787081
717904966,1763493607416074748,377707.306346,4128768,0.003507,-0.001034,-0.000124,0.351914,-9.731434,-0.815643
718908574,1763493607417078337,377707.307346,4128768,-0.005043,-0.004768,-0.002619,0.366088,-9.758472,-0.793100
719889663,1763493607418059445,377707.308346,4128768,-0.002171,-0.003554,-0.004674,0.364439,-9.739322,-0.790029
720878696,1763493607419048478,377707.309346,4128768,-0.001323,0.000952,-0.006713,0.361206,-9.744130,-0.791554
721859248,1763493607420029049,377707.310346,4128768,0.000266,-0.003110,-0.001380,0.364519,-9.753727,-0.796325
722998003,1763493607421167804,377707.311346,4128768,-0.000553,-0.000654,-0.004680,0.359776,-9.755313,-0.790028
723977926,1763493607422147727,377707.312346,4128768,0.002699,-0.001872,-0.000940,0.354842,-9.744204,-0.791615
724959533,1763493607423129297,377707.313346,4128768,-0.001810,-0.002700,0.001064,0.372592,-9.750484,-0.801119
725954919,1763493607424124738,377707.314346,4128768,0.000264,-0.003513,-0.002181,0.378997,-9.760093,-0.805742
726934860,1763493607425104679,377707.315346,4128768,0.001067,-0.003102,-0.000955,0.358257,-9.742629,-0.809193
727933634,1763493607426103416,377707.316346,4128768,-0.000156,0.002253,0.000659,0.358250,-9.733047,-0.818768
728930056,1763493607427099839,377707.317346,4128768,-0.000980,-0.000216,0.001065,0.370957,-9.755344,-0.802596
729910849,1763493607428080631,377707.318346,4128768,0.000241,0.000595,0.001484,0.356543,-9.744147,-0.791720
730891160,1763493607429060961,377707.319346,4128768,-0.002999,0.001824,-0.002637,0.358116,-9.755301,-0.783701
731871509,1763493607430041291,377707.320346,4128768,-0.002612,-0.001882,-0.002225,0.357960,-9.756865,-0.778798
732866949,1763493607431036750,377707.321346,4128768,0.000688,0.000160,-0.003856,0.364500,-9.752077,-0.783682
733861650,1763493607432031432,377707.322346,4128768,0.000270,0.000185,-0.001801,0.382103,-9.747394,-0.804175
735000183,1763493607433169983,377707.323346,4128768,-0.000986,0.000204,0.002300,0.374313,-9.744242,-0.821782
735980272,1763493607434150054,377707.324346,4128768,-0.001331,-0.000658,-0.002207,0.359902,-9.744209,-0.812343
736961842,1763493607435131643,377707.325346,4128768,0.000716,-0.000228,-0.003012,0.369347,-9.752096,-0.796342
737942191,1763493607436111991,377707.326346,4128768,0.000646,-0.001466,-0.000159,0.380433,-9.747286,-0.802570
738937965,1763493607437107655,377707.327346,4128768,-0.000579,-0.000241,-0.001400,0.367662,-9.745745,-0.802694
744676129,1763493607442845986,377707.328346,4128768,-0.000972,-0.003523,-0.000962,0.375637,-9.739435,-0.805839
744696222,1763493607442866115,377707.329346,4128768,0.005157,0.004298,-0.002178,0.366161,-9.744175,-0.797973
744715426,1763493607442885319,377707.330346,4128768,-0.000973,0.001822,-0.002205,0.372483,-9.744183,-0.802642
744734463,1763493607442904356,377707.331346,4128768,0.003113,-0.001049,-0.001380,0.364415,-9.752087,-0.778855
744753703,1763493607442923597,377707.332346,4128768,-0.000126,0.000184,-0.003853,0.359788,-9.763330,-0.801111
744945980,1763493607443115781,377707.333346,4128768,0.002324,0.001820,-0.004258,0.367674,-9.742579,-0.801131
745929421,1763493607444099111,377707.334346,4128768,0.001915,0.000184,-0.000147,0.361403,-9.750566,-0.802767
746927788,1763493607445097478,377707.335346,4128768,0.001927,0.000587,-0.004646,0.374122,-9.761745,-0.801009
747911470,1763493607446081159,377707.336346,4128768,0.001874,-0.001031,-0.000136,0.361448,-9.755400,-0.812232
748939799,1763493607447109341,377707.337346,4128768,0.002321,-0.001483,-0.002993,0.356523,-9.744193,-0.788572
749926999,1763493607448096800,377707.338346,4128768,0.002312,-0.001902,-0.002591,0.361395,-9.758533,-0.802662
750910589,1763493607449080315,377707.339346,4128768,0.004336,-0.002276,0.000277,0.375649,-9.748947,-0.796268
751892104,1763493607450061534,377707.340346,4128768,0.001067,0.001826,-0.001386,0.367712,-9.736172,-0.794884
752881193,1763493607451050864,377707.341346,4128768,-0.000544,-0.004358,-0.000959,0.363019,-9.736169,-0.802870
753921559,1763493607452091342,377707.342346,4128768,0.002288,-0.001451,0.001078,0.361462,-9.748959,-0.812244
754904019,1763493607453073801,377707.343346,4128768,0.003138,-0.001891,-0.003398,0.364514,-9.742548,-0.797960
755887571,1763493607454057242,377707.344346,4128768,0.000657,0.000608,-0.000558,0.369367,-9.737690,-0.793256
756884512,1763493607455054312,377707.345346,4128768,0.000671,-0.002715,-0.001373,0.359783,-9.731448,-0.804464
757883730,1763493607456053531,377707.346346,4128768,0.001083,-0.001881,-0.001777,0.362937,-9.733015,-0.796499
758933856,1763493607457103509,377707.347346,4128768,0.005161,0.000616,-0.002201,0.356536,-9.750610,-0.807485
759918630,1763493607458088394,377707.348346,4128768,-0.000159,0.001840,0.001475,0.358003,-9.733050,-0.796432
760917312,1763493607459087113,377707.349346,4128768,0.003505,-0.001024,0.001092,0.362879,-9.745814,-0.802722
761901401,1763493607460071202,377707.350346,4128768,0.000681,-0.000624,-0.002618,0.367704,-9.745747,-0.804286
762885268,1763493607461054439,377707.351346,4128768,0.005578,0.004318,-0.001368,0.369271,-9.753757,-0.802605
763888968,1763493607462058769,377707.352346,4128768,0.007220,0.001442,-0.001761,0.359652,-9.745789,-0.796358
764942631,1763493607463112413,377707.353346,4128768,0.006789,0.001041,0.000303,0.358205,-9.741053,-0.810735
765926442,1763493607464095984,377707.354346,4128768,0.003556,-0.001477,-0.002158,0.359867,-9.742634,-0.807634
766910420,1763493607465080202,377707.355346,4128768,0.002259,0.002291,0.002303,0.351811,-9.748991,-0.799659
767909954,1763493607466079773,377707.356346,4128768,0.004719,0.003103,0.001079,0.370997,-9.736145,-0.801208
768932043,1763493607467101788,377707.357346,4128768,0.001063,-0.002697,0.001488,0.366050,-9.740948,-0.793212
769918558,1763493607468088358,377707.358346,4128768,0.001877,0.001840,0.000264,0.358113,-9.747370,-0.799540
770901221,1763493607469071022,377707.359346,4128768,0.005127,-0.000595,-0.000143,0.350123,-9.752113,-0.802720
771883773,1763493607470053574,377707.360346,4128768,0.000678,-0.001477,-0.003840,0.359646,-9.744143,-0.791583
772888899,1763493607471058700,377707.361346,4128768,0.006801,0.000613,-0.000118,0.351720,-9.749024,-0.790088
773875969,1763493607472045770,377707.362346,4128768,0.001468,-0.002276,0.000671,0.369303,-9.760129,-0.797857
774876503,1763493607473046359,377707.363346,4128768,0.001894,-0.001462,-0.001784,0.355063,-9.749008,-0.807561
775880925,1763493607474050707,377707.364346,4128768,0.003939,-0.000636,-0.000540,0.369279,-9.732931,-0.796374
776880866,1763493607475050574,377707.365346,4128768,0.000240,-0.000212,0.000658,0.361422,-9.737829,-0.807592
777891955,1763493607476061756,377707.366346,4128768,0.002711,-0.001051,-0.000540,0.345472,-9.742649,-0.804522
778966266,1763493607477135974,377707.367346,4128768,0.001494,0.001011,-0.003429,0.367786,-9.741041,-0.815396
779989836,1763493607478158656,377707.368346,4128768,-0.000168,0.002663,-0.000171,0.362896,-9.745829,-0.802682
781000259,1763493607479169615,377707.369346,4128768,0.002660,-0.003498,0.003147,0.374001,-9.752100,-0.789905
782022959,1763493607480192648,377707.370346,4128768,-0.000134,-0.003951,-0.002589,0.377288,-9.742565,-0.801069
783007196,1763493607481177015,377707.371346,4128768,0.002289,0.000200,-0.000968,0.369403,-9.745792,-0.805896
783986026,1763493607482155827,377707.372346,4128768,-0.001350,-0.002312,-0.003839,0.362947,-9.755329,-0.804258
784964874,1763493607483134675,377707.373346,4128768,0.000711,-0.002689,-0.000146,0.366063,-9.739333,-0.799536
785944148,1763493607484113931,377707.374346,4128768,0.001486,-0.004345,-0.000949,0.375721,-9.728145,-0.799596
786922571,1763493607485092390,377707.375346,4128768,0.003147,-0.003544,-0.002583,0.370912,-9.747345,-0.799520
787901215,1763493607486071016,377707.376346,4128768,0.002309,-0.001884,-0.002184,0.366054,-9.734603,-0.788499
788955600,1763493607487125253,377707.377346,4128768,-0.001389,-0.003121,-0.000158,0.383694,-9.739338,-0.793172
789975356,1763493607488145138,377707.378346,4128768,0.003904,-0.001047,0.002340,0.362917,-9.731324,-0.780692
792643958,1763493607490812092,377707.379346,4128768,0.003525,-0.001458,-0.000940,0.377348,-9.752132,-0.796315
792677809,1763493607490847684,377707.380346,4128768,0.000640,0.000197,0.001908,0.370849,-9.745703,-0.791534
792891049,1763493607491060758,377707.381346,4128768,0.000292,-0.001907,-0.005048,0.370761,-9.731315,-0.788432
793917972,1763493607492087346,377707.382346,4128768,-0.000581,-0.003119,0.001518,0.372424,-9.740983,-0.802674
794911764,1763493607493081547,377707.383346,4128768,0.000248,-0.000662,-0.002617,0.359582,-9.740993,-0.796367
795915298,1763493607494084821,377707.384346,4128768,0.000663,0.003478,-0.002226,0.366090,-9.742537,-0.796403
796899257,1763493607495068910,377707.385346,4128768,0.002695,-0.000225,-0.000541,0.383625,-9.758478,-0.794577
797878828,1763493607496048629,377707.386346,4128768,-0.000563,-0.001051,-0.001781,0.370877,-9.748934,-0.797910
798937917,1763493607497107569,377707.387346,4128768,0.001486,-0.001033,-0.000147,0.362965,-9.740978,-0.810730
799920561,1763493607498090344,377707.388346,4128768,0.001057,-0.000222,-0.001382,0.358081,-9.736219,-0.801229
800901780,1763493607499071581,377707.389346,4128768,-0.000613,-0.001887,0.000259,0.358140,-9.740973,-0.799621
801880073,1763493607500049892,377707.390346,4128768,0.000680,-0.002309,-0.004633,0.367833,-9.739429,-0.812294
802874254,1763493607501044055,377707.391346,4128768,0.001482,-0.000217,0.000264,0.359835,-9.752174,-0.805911
804010991,1763493607502180773,377707.392346,4128768,0.001875,0.000597,-0.000548,0.372619,-9.752151,-0.804277
804990469,1763493607503160122,377707.393346,4128768,-0.000999,-0.001874,0.001470,0.383687,-9.745764,-0.802601
805968669,1763493607504138470,377707.394346,4128768,0.004334,0.001858,0.000257,0.375670,-9.748884,-0.794706
806947258,1763493607505117041,377707.395346,4128768,-0.000151,0.000610,-0.001392,0.380318,-9.739347,-0.794644
812615071,1763493607510784946,377707.396346,4128768,0.001479,-0.001880,0.000678,0.378846,-9.737742,-0.797929
812666719,1763493607510836557,377707.397346,4128768,-0.000131,0.001824,-0.003444,0.375533,-9.737697,-0.777286
812697941,1763493607510867835,377707.398346,4128768,0.002320,-0.003126,-0.002591,0.370874,-9.732965,-0.791654
812717293,1763493607510887168,377707.399346,4128768,-0.003015,-0.003114,0.000245,0.361327,-9.747450,-0.801113
812736497,1763493607510906372,377707.400346,4128768,-0.001394,-0.001888,-0.002614,0.356586,-9.733038,-0.809176
812922663,1763493607511092445,377707.401346,4128768,0.003088,0.001024,-0.000147,0.372575,-9.758554,-0.805799
813901993,1763493607512071793,377707.402346,4128768,-0.004239,-0.003540,-0.001398,0.374035,-9.742531,-0.804239
814880896,1763493607513050697,377707.403346,4128768,0.001077,-0.000657,-0.001788,0.367641,-9.758532,-0.791458
816018652,1763493607514188453,377707.404346,4128768,-0.000571,0.000587,-0.000568,0.356506,-9.755308,-0.783632
816854871,1763493607515024653,377707.405346,4128768,-0.003034,0.000590,-0.000178,0.367686,-9.760153,-0.796264
817992182,1763493607516161982,377707.406346,4128768,-0.000560,0.000201,-0.000980,0.374277,-9.758637,-0.812176
818878938,1763493607517048609,377707.407346,4128768,-0.000993,-0.001042,0.001487,0.367749,-9.752213,-0.796365
819881693,1763493607518051142,377707.408346,4128768,-0.002592,0.000579,-0.003462,0.359623,-9.739409,-0.796401
820893523,1763493607519063287,377707.409346,4128768,0.001491,0.002257,-0.000556,0.354869,-9.745749,-0.790053
821882631,1763493607520052302,377707.410346,4128768,-0.000156,0.001044,-0.000596,0.366029,-9.737722,-0.794768
822893701,1763493607521063539,377707.411346,4128768,-0.003807,-0.002317,-0.003865,0.364448,-9.744129,-0.791569
823978012,1763493607522147794,377707.412346,4128768,0.001506,-0.000630,-0.003011,0.364526,-9.744159,-0.801125
824964953,1763493607523134495,377707.413346,4128768,-0.000979,-0.001450,0.000260,0.366159,-9.737830,-0.804361
825956098,1763493607524125417,377707.414346,4128768,-0.003411,-0.003542,-0.002637,0.366033,-9.750589,-0.794738
826999242,1763493607525167413,377707.415346,4128768,-0.003031,-0.003114,-0.000166,0.373992,-9.742465,-0.791550
828003849,1763493607526170965,377707.416346,4128768,-0.001754,0.000576,-0.003448,0.378873,-9.752106,-0.796241
828934068,1763493607527100832,377707.417346,4128768,-0.005067,-0.004776,0.000235,0.367834,-9.760168,-0.805803
829953231,1763493607528119532,377707.418346,4128768,-0.004247,-0.001082,-0.002227,0.353442,-9.741057,-0.807618
830951913,1763493607529121325,377707.419346,4128768,-0.001769,0.000601,-0.001395,0.364521,-9.750555,-0.799504
831953687,1763493607530123358,377707.420346,4128768,0.002307,0.002252,-0.003016,0.367765,-9.752211,-0.815362
832940369,1763493607531110040,377707.421346,4128768,0.002716,0.000182,-0.001783,0.369442,-9.752173,-0.807469
834106235,1763493607532275962,377707.422346,4128768,-0.000987,0.002239,0.000248,0.379056,-9.736156,-0.815458
834930417,1763493607533100218,377707.423346,4128768,-0.003018,-0.002703,-0.001401,0.359880,-9.741020,-0.806030
835909488,1763493607534079289,377707.424346,4128768,-0.003413,-0.001054,-0.003447,0.361295,-9.737688,-0.780608
836888688,1763493607535058489,377707.425346,4128768,-0.002169,0.000591,-0.002622,0.362975,-9.745822,-0.809057
837997073,1763493607536166855,377707.426346,4128768,-0.006657,0.002596,-0.003072,0.366126,-9.734607,-0.807524
838926144,1763493607537094426,377707.427346,4128768,-0.001791,-0.001485,-0.001385,0.372555,-9.740995,-0.813751
839913640,1763493607538083441,377707.428346,4128768,-0.004205,-0.003135,-0.002215,0.374099,-9.748846,-0.791537
840892822,1763493607539062623,377707.429346,4128768,0.000249,0.000621,0.000263,0.350114,-9.747260,-0.785304
844589660,1763493607542759295,377707.430346,4128768,-0.000963,-0.004356,-0.001369,0.359884,-9.737829,-0.813973
844613438,1763493607542783332,377707.431346,4128768,-0.000557,-0.003955,-0.001777,0.371160,-9.753750,-0.818630
844632753,1763493607542802628,377707.432346,4128768,-0.002184,0.002231,-0.003059,0.379000,-9.760130,-0.813681
844984048,1763493607543153830,377707.433346,4128768,-0.003031,0.000584,-0.001003,0.372464,-9.744186,-0.804247
845963119,1763493607544132919,377707.434346,4128768,-0.000972,-0.000646,-0.000587,0.363200,-9.745827,-0.825058
846941967,1763493607545111749,377707.435346,4128768,-0.002617,-0.002676,-0.000169,0.377456,-9.745780,-0.820207
847921111,1763493607546090894,377707.436346,4128768,-0.000138,-0.003103,-0.000542,0.369346,-9.739399,-0.812246
848967052,1763493607547136797,377707.437346,4128768,-0.003431,0.001407,-0.001830,0.370916,-9.744153,-0.802692
849948215,1763493607548118016,377707.438346,4128768,-0.001814,0.000183,-0.000986,0.358262,-9.753845,-0.815433
850926471,1763493607549096253,377707.439346,4128768,0.000221,0.004711,-0.000178,0.367689,-9.747339,-0.797901
851920449,1763493607550090250,377707.440346,4128768,0.000668,-0.002724,-0.001773,0.353325,-9.747363,-0.799614
852899612,1763493607551069432,377707.441346,4128768,-0.001808,0.001397,-0.001399,0.356582,-9.734607,-0.801276
853878516,1763493607552048298,377707.442346,4128768,0.001502,-0.001055,-0.000969,0.347081,-9.747405,-0.804455
854867272,1763493607553037054,377707.443346,4128768,-0.002981,-0.000654,-0.003844,0.367864,-9.755403,-0.810630
856014083,1763493607554183717,377707.444346,4128768,-0.001340,-0.001047,-0.002632,0.375604,-9.747292,-0.794700
856936190,1763493607555102713,377707.445346,4128768,-0.000154,-0.001053,-0.000574,0.367692,-9.737778,-0.809058
858030223,1763493607556198561,377707.446346,4128768,0.001079,-0.000238,-0.002603,0.370884,-9.742468,-0.788445
859030257,1763493607557199373,377707.447346,4128768,-0.000948,-0.005606,-0.003827,0.370861,-9.742515,-0.788429
859930513,1763493607558098777,377707.448346,4128768,0.001922,-0.000249,-0.004231,0.375879,-9.748922,-0.813845
860975861,1763493607559145217,377707.449346,4128768,-0.000148,-0.003104,-0.000557,0.366082,-9.742522,-0.790030
861966376,1763493607560135381,377707.450346,4128768,0.003104,-0.001471,-0.001360,0.364600,-9.734619,-0.809180
862954447,1763493607561123896,377707.451346,4128768,0.000677,-0.001062,-0.001793,0.363021,-9.739445,-0.817079
863939628,1763493607562109096,377707.452346,4128768,0.002298,-0.001872,-0.001349,0.354985,-9.744197,-0.802834
865002069,1763493607563171518,377707.453346,4128768,0.000677,0.002634,-0.002209,0.359710,-9.734645,-0.799714
866006139,1763493607564175588,377707.454346,4128768,0.001442,0.001427,0.001901,0.372426,-9.752081,-0.802587
866989636,1763493607565159307,377707.455346,4128768,0.002285,-0.002706,-0.001774,0.362995,-9.734631,-0.812321
867975317,1763493607566144896,377707.456346,4128768,0.003120,-0.002678,0.000292,0.365988,-9.729780,-0.790052
868886462,1763493607567056004,377707.457346,4128768,0.001871,0.001849,0.001073,0.370760,-9.726587,-0.793198
869874274,1763493607568043371,377707.458346,4128768,0.003523,-0.001036,0.000269,0.361373,-9.737803,-0.804379
870880696,1763493607569049960,377707.459346,4128768,0.003512,-0.001431,-0.000541,0.355044,-9.742580,-0.802892
871878933,1763493607570048512,377707.460346,4128768,0.006396,-0.001874,-0.000106,0.359740,-9.736214,-0.801235
872895429,1763493607571065212,377707.461346,4128768,0.003095,-0.003092,0.004385,0.361351,-9.742550,-0.788541
873878611,1763493607572048190,377707.462346,4128768,0.000262,-0.003542,-0.002194,0.364686,-9.750546,-0.807512
874877682,1763493607573047279,377707.463346,4128768,0.003523,-0.001022,0.000673,0.362949,-9.742576,-0.812227
875875974,1763493607574045646,377707.464346,4128768,0.001480,0.000603,-0.000973,0.361328,-9.739433,-0.804331
876877711,1763493607575047401,377707.465346,4128768,0.004781,-0.001468,-0.003406,0.355007,-9.747366,-0.805971
877883430,1763493607576053083,377707.466346,4128768,0.001062,0.003499,-0.000987,0.369425,-9.748997,-0.807512
878916723,1763493607577086412,377707.467346,4128768,0.000658,-0.000644,-0.001794,0.364577,-9.741037,-0.807534
879926460,1763493607578096150,377707.468346,4128768,0.001461,-0.000651,-0.000564,0.358234,-9.753756,-0.807513
880925049,1763493607579094665,377707.469346,4128768,0.002711,0.002660,-0.000973,0.366061,-9.744140,-0.799524
881926990,1763493607580096642,377707.470346,4128768,-0.000612,0.002259,0.000645,0.372409,-9.736179,-0.786860
882922708,1763493607581092565,377707.471346,4128768,-0.002597,-0.004368,0.000270,0.375573,-9.752116,-0.788292
884343425,1763493607582512597,377707.472346,4128768,0.000287,-0.000645,-0.003009,0.380586,-9.752153,-0.807383
885024145,1763493607583193983,377707.473346,4128768,0.003112,-0.001458,-0.001778,0.361256,-9.748987,-0.788424
885889494,1763493607584059073,377707.474346,4128768,0.003136,-0.003105,-0.001342,0.366084,-9.753677,-0.793126
886904231,1763493607585073921,377707.475346,4128768,0.001886,-0.003930,-0.000140,0.367653,-9.752197,-0.804189
887885431,1763493607586054899,377707.476346,4128768,0.005160,0.001419,-0.002593,0.382203,-9.761799,-0.815290
888942187,1763493607587111562,377707.477346,4128768,0.001898,-0.004756,0.001489,0.386941,-9.763255,-0.797764
889968109,1763493607588137762,377707.478346,4128768,0.003906,-0.001857,-0.000135,0.359766,-9.760128,-0.794754
890950587,1763493607589120240,377707.479346,4128768,0.001903,0.000161,-0.002184,0.374019,-9.744175,-0.793154
891933065,1763493607590102570,377707.480346,4128768,0.000271,-0.002726,-0.000957,0.370816,-9.747309,-0.793119
892921395,1763493607591090955,377707.481346,4128768,0.001870,0.000612,0.001078,0.377136,-9.745689,-0.786721
893971595,1763493607592141377,377707.482346,4128768,0.001493,-0.003136,-0.001764,0.370940,-9.742527,-0.804273
894954573,1763493607593124281,377707.483346,4128768,0.002299,-0.001472,-0.000547,0.375682,-9.752142,-0.793130
895938273,1763493607594107851,377707.484346,4128768,0.003151,0.001816,-0.002177,0.375590,-9.753687,-0.796217
896924010,1763493607595093515,377707.485346,4128768,0.003084,-0.001466,-0.001357,0.385184,-9.748877,-0.791448
897913340,1763493607596082900,377707.486346,4128768,-0.003022,0.000597,-0.000166,0.377284,-9.742486,-0.794755
898939577,1763493607597109156,377707.487346,4128768,-0.000589,-0.001052,0.001089,0.366248,-9.761742,-0.809015
899926703,1763493607598096189,377707.488346,4128768,0.000651,0.002659,-0.000988,0.362918,-9.740854,-0.786914
900927329,1763493607599096648,377707.489346,4128768,0.000227,-0.003109,0.001095,0.362916,-9.737662,-0.780619
901911844,1763493607600081534,377707.490346,4128768,0.001861,0.003913,-0.000165,0.366139,-9.742622,-0.805896
902893674,1763493607601063327,377707.491346,4128768,0.003533,0.000188,-0.000130,0.356649,-9.760223,-0.812244
903900244,1763493607602069916,377707.492346,4128768,0.001108,-0.003116,-0.003819,0.364592,-9.744212,-0.804336
904883870,1763493607603053542,377707.493346,4128768,-0.000109,-0.000248,-0.003829,0.364529,-9.755331,-0.791608
907086900,1763493607605256404,377707.494346,4128768,0.003514,-0.002260,0.000280,0.354984,-9.739349,-0.788599
907117381,1763493607605287274,377707.495346,4128768,0.001061,-0.001882,-0.000962,0.374072,-9.737786,-0.797945
908027489,1763493607606196679,377707.496346,4128768,-0.001755,-0.001476,-0.002622,0.370966,-9.747383,-0.805885
908983448,1763493607607152657,377707.497346,4128768,-0.002583,0.000172,-0.003044,0.374204,-9.744160,-0.809052
910031722,1763493607608200727,377707.498346,4128768,0.001485,-0.001469,-0.002181,0.375608,-9.737711,-0.797884
910909997,1763493607609079205,377707.499346,4128768,0.000267,-0.001470,-0.003428,0.377147,-9.734538,-0.785218
911949827,1763493607610118961,377707.500346,4128768,-0.002577,0.000175,-0.003466,0.367662,-9.744159,-0.799518
912987378,1763493607611156790,377707.501346,4128768,-0.000178,0.001007,-0.000581,0.362922,-9.731428,-0.799642
914021449,1763493607612190731,377707.502346,4128768,-0.001402,-0.002300,0.001488,0.366053,-9.742509,-0.790052
914892779,1763493607613062469,377707.503346,4128768,-0.003841,-0.001885,-0.000563,0.358039,-9.728233,-0.794916
915881479,1763493607614051262,377707.504346,4128768,-0.001352,-0.001051,-0.000156,0.378951,-9.760151,-0.805725
916886087,1763493607615055869,377707.505346,4128768,0.002304,-0.001084,-0.003007,0.370834,-9.731367,-0.801119
918026583,1763493607616196402,377707.506346,4128768,0.000664,-0.001459,-0.000970,0.364472,-9.732977,-0.798028
918961561,1763493607617131213,377707.507346,4128768,0.000646,0.003067,-0.000171,0.382208,-9.740971,-0.816989
919954983,1763493607618124784,377707.508346,4128768,-0.001823,0.001036,0.001460,0.377312,-9.747311,-0.799498
920944980,1763493607619114780,377707.509346,4128768,-0.000514,-0.001872,-0.003025,0.359872,-9.741010,-0.813938
921948957,1763493607620118758,377707.510346,4128768,-0.000542,-0.001482,-0.004666,0.355034,-9.750598,-0.813893
922939935,1763493607621109736,377707.511346,4128768,-0.004633,-0.000233,0.000647,0.364471,-9.750503,-0.794749
923926691,1763493607622096251,377707.512346,4128768,0.001485,-0.007246,-0.001740,0.378905,-9.756863,-0.791528
924915132,1763493607623084729,377707.513346,4128768,-0.000575,0.003095,0.000227,0.364502,-9.739359,-0.788510
925903703,1763493607624073300,377707.514346,4128768,-0.001367,0.000582,-0.000569,0.369351,-9.752132,-0.797921
926900569,1763493607625070204,377707.515346,4128768,-0.004235,-0.002288,-0.000990,0.362877,-9.745753,-0.796374
927979066,1763493607626148663,377707.516346,4128768,0.000645,-0.000227,0.000659,0.367682,-9.742513,-0.802735
928889433,1763493607627059141,377707.517346,4128768,-0.000541,0.002635,-0.001386,0.378841,-9.748882,-0.794641
929871744,1763493607628041545,377707.518346,4128768,0.000247,-0.002712,-0.000550,0.361323,-9.752151,-0.791580
931008666,1763493607629178448,377707.519346,4128768,0.000655,0.000595,-0.001802,0.361391,-9.744216,-0.805988
931987014,1763493607630156796,377707.520346,4128768,-0.000557,-0.000215,-0.003034,0.356709,-9.741045,-0.812433
932966566,1763493607631136348,377707.521346,4128768,-0.001373,-0.001881,0.000243,0.351787,-9.734645,-0.804459
933944822,1763493607632114604,377707.522346,4128768,-0.001772,0.000171,-0.003452,0.366216,-9.742570,-0.809133
934923115,1763493607633092897,377707.523346,4128768,0.001501,0.000179,-0.001782,0.362975,-9.744230,-0.804387
935916500,1763493607634086282,377707.524346,4128768,0.001069,0.002252,-0.001805,0.359734,-9.747364,-0.801140
936895867,1763493607635065649,377707.525346,4128768,-0.002200,0.000178,0.001490,0.363060,-9.748960,-0.813813
937873937,1763493607636043720,377707.526346,4128768,0.000649,-0.000638,0.000262,0.356549,-9.740931,-0.786937
938863841,1763493607637033624,377707.527346,4128768,-0.000950,0.000985,-0.003422,0.361481,-9.760141,-0.810648
940001078,1763493607638170879,377707.528346,4128768,-0.000597,-0.000629,-0.000585,0.370876,-9.745754,-0.799510
940979593,1763493607639149394,377707.529346,4128768,0.001476,-0.002708,-0.003012,0.362909,-9.753752,-0.797890
941958015,1763493607640127798,377707.530346,4128768,0.001058,-0.001475,-0.002608,0.367681,-9.766485,-0.788272
942951456,1763493607641121257,377707.531346,4128768,-0.004647,0.000197,0.000619,0.370945,-9.763338,-0.796218
943929990,1763493607642099791,377707.532346,4128768,0.003088,-0.000212,0.001484,0.372458,-9.752190,-0.804165
944909746,1763493607643079528,377707.533346,4128768,0.001072,-0.001459,-0.001779,0.359727,-9.742596,-0.804341
945888538,1763493607644058339,377707.534346,4128768,-0.003025,-0.003930,-0.001806,0.367749,-9.742602,-0.804369
946881850,1763493607645051521,377707.535346,4128768,-0.000558,0.001415,-0.000995,0.380434,-9.747317,-0.793059
947862105,1763493607646031888,377707.536346,4128768,0.001509,-0.001057,-0.002999,0.372558,-9.747396,-0.801081
948878676,1763493607647048477,377707.537346,4128768,-0.000154,-0.004767,-0.000133,0.367593,-9.729750,-0.788497
949871543,1763493607648041325,377707.538346,4128768,-0.000143,-0.002315,-0.002189,0.364527,-9.739346,-0.802778
951008039,1763493607649177858,377707.539346,4128768,0.000274,-0.002718,-0.002199,0.369354,-9.745745,-0.799562
951986480,1763493607650156262,377707.540346,4128768,0.001084,-0.001875,-0.001370,0.361329,-9.750546,-0.790012
952965050,1763493607651134869,377707.541346,4128768,-0.002975,-0.003134,-0.003429,0.372449,-9.745776,-0.801024
953943602,1763493607652113384,377707.542346,4128768,-0.001794,-0.002738,-0.001382,0.377351,-9.752124,-0.807374
954922191,1763493607653091974,377707.543346,4128768,0.001069,-0.001065,-0.002198,0.372492,-9.736136,-0.799574
955901114,1763493607654070915,377707.544346,4128768,-0.000957,-0.003105,-0.000970,0.350123,-9.734592,-0.793368
956894443,1763493607655064244,377707.545346,4128768,0.002304,-0.003125,-0.000118,0.363045,-9.750608,-0.809090
957872570,1763493607656042352,377707.546346,4128768,-0.001353,-0.003141,-0.003039,0.377377,-9.753715,-0.802660
958867973,1763493607657037719,377707.547346,4128768,-0.001778,0.000176,-0.001815,0.363005,-9.750591,-0.804332
960005525,1763493607658175326,377707.548346,4128768,0.001087,-0.003114,-0.000144,0.359850,-9.753787,-0.809137
960983744,1763493607659153544,377707.549346,4128768,0.002317,0.000984,-0.002191,0.358173,-9.733057,-0.793380
961962277,1763493607660132078,377707.550346,4128768,-0.000971,-0.002291,-0.000979,0.358035,-9.745756,-0.782126
962940755,1763493607661110556,377707.551346,4128768,-0.000543,0.000570,-0.003442,0.366100,-9.739328,-0.788523
963961992,1763493607662131793,377707.552346,4128768,0.001073,-0.001032,-0.001367,0.375572,-9.734516,-0.786851
964961433,1763493607663131234,377707.553346,4128768,0.003118,-0.002290,-0.000139,0.369438,-9.755351,-0.810595
965939985,1763493607664109786,377707.554346,4128768,0.002683,0.000609,0.001492,0.364579,-9.756968,-0.794778
966918667,1763493607665088468,377707.555346,4128768,-0.003001,0.000182,-0.001405,0.367736,-9.745731,-0.794826
967897163,1763493607666066964,377707.556346,4128768,-0.000980,0.000589,-0.001397,0.364672,-9.744185,-0.815475
968886752,1763493607667056535,377707.557346,4128768,0.002277,0.000595,0.002733,0.356758,-9.752184,-0.802842
969865675,1763493607668035457,377707.558346,4128768,0.005571,-0.002706,-0.000524,0.362900,-9.752110,-0.794747
970859245,1763493607669029028,377707.559346,4128768,0.002342,0.001805,-0.005883,0.370855,-9.734557,-0.794820
972003889,1763493607670173672,377707.560346,4128768,-0.003821,0.000988,-0.002234,0.380487,-9.764925,-0.799315
972983515,1763493607671153298,377707.561346,4128768,0.003115,-0.001889,-0.002593,0.367757,-9.740997,-0.793248
973962382,1763493607672132183,377707.562346,4128768,-0.000526,-0.003940,-0.002607,0.367702,-9.756960,-0.804210
974940897,1763493607673110698,377707.563346,4128768,0.001868,0.001846,-0.000151,0.386793,-9.750500,-0.804090
975919338,1763493607674089139,377707.564346,4128768,0.003087,0.000174,0.002314,0.383767,-9.748885,-0.810560
976898687,1763493607675068487,377707.565346,4128768,0.000662,0.000164,-0.000574,0.366017,-9.742537,-0.791579
977892276,1763493607676062076,377707.566346,4128768,-0.000556,0.003885,-0.002235,0.359786,-9.752246,-0.805907
978889198,1763493607677058795,377707.567346,4128768,0.001518,-0.000663,-0.005063,0.366155,-9.739424,-0.796461
979872343,1763493607678042143,377707.568346,4128768,0.003104,0.002250,-0.003431,0.374110,-9.750458,-0.785221
981011190,1763493607679180954,377707.569346,4128768,0.004373,-0.006413,-0.002969,0.369249,-9.748916,-0.793169
981989372,1763493607680159154,377707.570346,4128768,0.001069,0.001009,-0.002200,0.364519,-9.760092,-0.791525
982967628,1763493607681137429,377707.571346,4128768,0.002317,0.001012,-0.000543,0.375678,-9.745713,-0.797896
983946698,1763493607682116370,377707.572346,4128768,0.003122,0.001410,-0.000543,0.367680,-9.744094,-0.789990
984940269,1763493607683110070,377707.573346,4128768,0.001059,0.001039,-0.000564,0.356564,-9.742549,-0.794861
985918747,1763493607684088529,377707.574346,4128768,0.002355,-0.001490,-0.005466,0.353386,-9.747355,-0.802825
986897114,1763493607685066896,377707.575346,4128768,0.001483,-0.000216,-0.000565,0.377253,-9.744148,-0.802601
987875351,1763493607686045133,377707.576346,4128768,0.004332,0.002695,0.001099,0.370912,-9.758520,-0.794725
988884033,1763493607687053833,377707.577346,4128768,0.001527,-0.001483,-0.005056,0.380555,-9.748935,-0.805798
989877677,1763493607688047478,377707.578346,4128768,0.004353,-0.001874,-0.001342,0.370845,-9.742531,-0.786876
990858285,1763493607689028086,377707.579346,4128768,0.001905,-0.000660,-0.003001,0.362885,-9.726596,-0.798095
991864652,1763493607690034452,377707.580346,4128768,0.005548,-0.000663,-0.003401,0.361283,-9.736152,-0.793316
993005647,1763493607691175430,377707.581346,4128768,0.002686,0.002249,0.001888,0.366228,-9.750537,-0.804317
993985940,1763493607692155741,377707.582346,4128768,0.001866,-0.003938,0.001926,0.354982,-9.736303,-0.810797
994966733,1763493607693136552,377707.583346,4128768,0.001492,-0.001476,-0.001757,0.364562,-9.752146,-0.788433
995946804,1763493607694116604,377707.584346,4128768,0.002297,0.003480,-0.000982,0.372659,-9.742567,-0.805955
996928652,1763493607695098434,377707.585346,4128768,-0.000132,0.000574,-0.002208,0.370933,-9.747377,-0.804274
997908704,1763493607696078505,377707.586346,4128768,0.000240,0.001857,-0.000170,0.367658,-9.736162,-0.793227
998925941,1763493607697095723,377707.587346,4128768,-0.001762,-0.001078,-0.003443,0.380423,-9.740848,-0.789932
999907030,1763493607698076831,377707.588346,4128768,0.000666,0.001839,0.000258,0.374136,-9.748980,-0.809016
1000888786,1763493607699058568,377707.589346,4128768,-0.000549,-0.000235,-0.001804,0.364740,-9.747458,-0.820253
1001869097,1763493607700038898,377707.590346,4128768,0.001057,-0.000609,0.000667,0.364584,-9.752131,-0.802694
1002863334,1763493607701033135,377707.591346,4128768,0.000677,0.000611,-0.002211,0.364512,-9.758552,-0.790003
1004002349,1763493607702172131,377707.592346,4128768,-0.001779,-0.003118,-0.002201,0.361294,-9.747366,-0.799508
1004983901,1763493607703153702,377707.593346,4128768,-0.001768,0.000173,-0.003860,0.380418,-9.755343,-0.796177
1005979694,1763493607704149346,377707.594346,4128768,0.000284,0.001410,-0.002609,0.366227,-9.752146,-0.807454
1006959820,1763493607705129602,377707.595346,4128768,-0.003826,-0.006004,0.000247,0.372492,-9.744081,-0.796308
1007940390,1763493607706110173,377707.596346,4128768,-0.002178,-0.005186,-0.001385,0.369297,-9.723365,-0.804376
1008930757,1763493607707100539,377707.597346,4128768,-0.001405,0.000591,-0.000171,0.369177,-9.729766,-0.794826
1009911476,1763493607708081277,377707.598346,4128768,-0.007114,0.000569,-0.001424,0.377211,-9.739294,-0.789974
1010892009,1763493607709061792,377707.599346,4128768,0.001484,0.000590,-0.003022,0.374142,-9.740951,-0.812215
1011872395,1763493607710042177,377707.600346,4128768,-0.002599,-0.000643,-0.001792,0.372606,-9.739431,-0.815451
1012868224,1763493607711038025,377707.601346,4128768,-0.001815,-0.001874,0.001064,0.361257,-9.739367,-0.801140
1014007369,1763493607712177169,377707.602346,4128768,-0.001787,-0.002687,-0.001375,0.356538,-9.750554,-0.793222
1014987569,1763493607713157370,377707.603346,4128768,-0.002608,-0.001473,-0.000985,0.362988,-9.744122,-0.798009
1015968047,1763493607714137848,377707.604346,4128768,-0.002596,-0.000636,-0.003046,0.370839,-9.750514,-0.791497
1016949784,1763493607715119585,377707.605346,4128768,-0.006264,-0.000677,-0.002657,0.366108,-9.742551,-0.801088
1017930040,1763493607716099840,377707.606346,4128768,-0.001406,0.001402,0.000655,0.372567,-9.744135,-0.809020
1018925462,1763493607717095263,377707.607346,4128768,-0.002188,-0.001474,-0.003028,0.370845,-9.747334,-0.791567
1019921829,1763493607718091611,377707.608346,4128768,-0.000159,0.000563,-0.001390,0.377274,-9.750566,-0.805794
1020903307,1763493607719073089,377707.609346,4128768,-0.000576,-0.000665,-0.000139,0.362910,-9.745811,-0.804292
1021883803,1763493607720053586,377707.610346,4128768,-0.003816,0.000167,-0.003040,0.362937,-9.750583,-0.805844
1022864207,1763493607721034027,377707.611346,4128768,-0.001821,-0.001871,0.002297,0.359776,-9.747400,-0.799577
1024003703,1763493607722173504,377707.612346,4128768,-0.002625,-0.000227,0.001054,0.380585,-9.764935,-0.805701
1024985107,1763493607723154871,377707.613346,4128768,-0.006656,-0.003553,-0.002224,0.377211,-9.758522,-0.789850
1025965233,1763493607724135034,377707.614346,4128768,-0.000541,-0.001870,-0.001373,0.364353,-9.742508,-0.786840
1026977433,1763493607725147234,377707.615346,4128768,-0.006297,-0.000242,-0.001014,0.359729,-9.745789,-0.801210
1027957689,1763493607726127490,377707.616346,4128768,-0.005861,0.001393,-0.003890,0.367882,-9.757010,-0.813836
1028947796,1763493607727117560,377707.617346,4128768,-0.002229,-0.001037,0.001477,0.351898,-9.753701,-0.805983
1029928793,1763493607728098594,377707.618346,4128768,-0.002173,-0.001456,-0.002212,0.353399,-9.755302,-0.805930
1030909160,1763493607729078961,377707.619346,4128768,-0.005039,0.004285,-0.002261,0.361464,-9.764988,-0.812207
1031889712,1763493607730059513,377707.620346,4128768,-0.000531,-0.005608,-0.001770,0.370946,-9.755377,-0.810600
1032875319,1763493607731045120,377707.621346,4128768,0.000691,0.000976,-0.004678,0.374156,-9.748945,-0.807461
1033880390,1763493607732050172,377707.622346,4128768,-0.000568,-0.001897,-0.000555,0.364512,-9.753721,-0.793155
1034860849,1763493607733030650,377707.623346,4128768,-0.000959,-0.001872,-0.000151,0.363002,-9.756915,-0.797955
1035868549,1763493607734038332,377707.624346,4128768,-0.001384,0.001821,-0.001814,0.359889,-9.752176,-0.815452
1037009194,1763493607735178994,377707.625346,4128768,-0.003791,-0.002717,-0.000581,0.359806,-9.737813,-0.802860
1037989746,1763493607736159528,377707.626346,4128768,-0.002208,-0.001465,-0.000180,0.366201,-9.739407,-0.807563
1038996890,1763493607737166672,377707.627346,4128768,-0.002204,-0.001476,-0.001001,0.375758,-9.745793,-0.810601
1039978183,1763493607738147965,377707.628346,4128768,0.000663,-0.001456,-0.000560,0.378925,-9.739468,-0.816943
1040975216,1763493607739144999,377707.629346,4128768,-0.000568,-0.001883,-0.000976,0.366229,-9.766546,-0.807375
1041956065,1763493607740125847,377707.630346,4128768,-0.001748,0.001801,-0.005482,0.369367,-9.740993,-0.799592
1042936543,1763493607741106362,377707.631346,4128768,0.000276,0.002636,-0.003433,0.364475,-9.742563,-0.796367
1043917002,1763493607742086803,377707.632346,4128768,0.001485,-0.000252,-0.001378,0.366129,-9.756884,-0.793158
1044898702,1763493607743068485,377707.633346,4128768,0.002313,0.000584,-0.001780,0.354918,-9.745757,-0.799622
1045879625,1763493607744049407,377707.634346,4128768,0.002334,-0.002295,-0.002186,0.353472,-9.752227,-0.813900
1046860288,1763493607745030089,377707.635346,4128768,0.000294,-0.000652,-0.004654,0.386782,-9.745701,-0.797733
1048172487,1763493607746341843,377707.636346,4128768,0.001477,0.001403,-0.001793,0.367873,-9.739389,-0.813868
1048883558,1763493607747053322,377707.637346,4128768,0.001499,-0.001059,-0.001772,0.348507,-9.742557,-0.786979
1050206220,1763493607748375799,377707.638346,4128768,0.001913,-0.003121,-0.000538,0.372536,-9.742486,-0.794835
1050932477,1763493607749102111,377707.639346,4128768,-0.000539,0.000159,-0.003029,0.367832,-9.744118,-0.799633
1051924659,1763493607750094330,377707.640346,4128768,-0.002222,0.003477,0.001055,0.372430,-9.740928,-0.796304
1052908248,1763493607751078030,377707.641346,4128768,0.000683,0.001829,-0.003430,0.362900,-9.732980,-0.799640
1053908022,1763493607752077804,377707.642346,4128768,0.005185,0.000184,-0.003398,0.367795,-9.747343,-0.817001
1054955426,1763493607753125097,377707.643346,4128768,0.002304,-0.004738,-0.000936,0.361517,-9.749019,-0.817054
1055935070,1763493607754104853,377707.644346,4128768,0.001862,0.000202,-0.000154,0.359840,-9.740931,-0.804439
1056914048,1763493607755083831,377707.645346,4128768,0.001059,0.001050,0.001900,0.363020,-9.739375,-0.802858
1057892637,1763493607756062420,377707.646346,4128768,0.002302,0.002648,-0.001784,0.364503,-9.737803,-0.804332
1058908152,1763493607757077916,377707.647346,4128768,-0.000132,-0.001079,-0.003431,0.378820,-9.750561,-0.794651
1059898926,1763493607758068598,377707.648346,4128768,-0.000149,0.003062,-0.001000,0.367741,-9.742542,-0.794819
1061044089,1763493607759213723,377707.649346,4128768,0.004755,0.004294,-0.000548,0.359730,-9.728178,-0.793371
1061927678,1763493607760097479,377707.650346,4128768,0.001900,0.000605,-0.000150,0.369331,-9.750525,-0.796321
1062912749,1763493607761082550,377707.651346,4128768,0.001516,-0.002703,-0.004651,0.370832,-9.742563,-0.802632
1063905727,1763493607762075509,377707.652346,4128768,0.001486,-0.002277,-0.000139,0.371027,-9.733042,-0.817086
1065954645,1763493607764124502,377707.653346,4128768,0.004331,0.001827,-0.002597,0.353417,-9.747364,-0.801270
1065974664,1763493607764144557,377707.654346,4128768,0.005530,0.001013,0.001928,0.361394,-9.750559,-0.796427
1066956808,1763493607765126609,377707.655346,4128768,0.007217,0.001028,-0.000529,0.366123,-9.747340,-0.799573
1067936824,1763493607766106643,377707.656346,4128768,0.007580,0.002264,0.002345,0.367682,-9.726630,-0.804399
1068994301,1763493607767163991,377707.657346,4128768,-0.001356,-0.000229,-0.001815,0.375701,-9.736212,-0.799548
1069975650,1763493607768145450,377707.658346,4128768,0.002291,-0.001025,-0.000555,0.374080,-9.753718,-0.788372
1070953942,1763493607769123743,377707.659346,4128768,0.004755,-0.001455,-0.000113,0.367708,-9.752152,-0.799461
1071932457,1763493607770102240,377707.660346,4128768,0.001052,0.001429,0.000246,0.369357,-9.734605,-0.805918
1072911769,1763493607771081570,377707.661346,4128768,0.005597,0.000173,-0.003806,0.374127,-9.756971,-0.794655
1073890191,1763493607772060010,377707.662346,4128768,0.003127,-0.003941,-0.000951,0.359787,-9.758564,-0.804262
1074868799,1763493607773038600,377707.663346,4128768,0.003141,-0.001467,-0.000942,0.366045,-9.753752,-0.791546
1075862203,1763493607774031985,377707.664346,4128768,0.003940,0.002262,-0.000575,0.367641,-9.745757,-0.794713
1076866940,1763493607775036741,377707.665346,4128768,0.001046,0.000594,0.001068,0.362915,-9.740973,-0.797979
1078004269,1763493607776174070,377707.666346,4128768,0.003105,-0.001042,-0.000976,0.363032,-9.756903,-0.801118
1078992784,1763493607777162548,377707.667346,4128768,0.003559,0.003060,-0.004642,0.361368,-9.748943,-0.794816
1079971725,1763493607778141507,377707.668346,4128768,0.003126,0.002643,-0.003414,0.339168,-9.760155,-0.810823
1080950166,1763493607779119948,377707.669346,4128768,0.005620,-0.003535,-0.004198,0.351824,-9.763323,-0.802758
